2562-03-05 125910,,,,,,,,,,,,
Start Time,2562/03/05 12:59:10,Timestamp,1551765550944,,,,,,,,,
sensor ID,timestamp (ms),Sample Count,acc_x,acc_y,acc_z,gyro_x,gyro_y,gyro_z,mag_x,mag_y,mag_z,mark
76f897717d325b35,1551765551006,0,,,,,,,,,,0
76f897717d325b35,1551765551006,0,,,,,,,,,,0
76f897717d325b35,1551765551006,0,,,,,,,,,,0
76f897717d325b35,1551765551006,0,,,,,,,,,,0
76f897717d325b35,1551765551006,0,,,,,,,,,,0
76f897717d325b35,1551765551006,0,-6913.0,-8449.0,9471.0,0.0,0.0,0.0,0.0,0.0,0.0,0
76f897717d325b35,1551765551029,1,-6913.0,-8449.0,9471.0,0.0,0.0,0.0,0.0,0.0,0.0,0
76f897717d325b35,1551765551059,2,-6913.0,-8449.0,9471.0,0.0,0.0,0.0,0.0,0.0,0.0,0
76f897717d325b35,1551765551119,3,-6913.0,-8449.0,9471.0,0.0,0.0,0.0,0.0,0.0,0.0,0
76f897717d325b35,1551765551209,4,-6913.0,-8449.0,9471.0,0.0,0.0,0.0,0.0,0.0,0.0,0
76f897717d325b35,1551765551239,5,-6913.0,-8449.0,9471.0,0.0,0.0,0.0,0.0,0.0,0.0,0
76f897717d325b35,1551765551389,6,-6913.0,-8449.0,9471.0,0.0,0.0,0.0,0.0,0.0,0.0,0
76f897717d325b35,1551765551390,7,-6913.0,-8449.0,9471.0,0.0,0.0,0.0,0.0,0.0,0.0,0
76f897717d325b35,1551765551508,8,-6913.0,-8449.0,9471.0,0.0,0.0,0.0,0.0,0.0,0.0,0
76f897717d325b35,1551765551539,9,-6913.0,-8449.0,9471.0,0.0,0.0,0.0,0.0,0.0,0.0,0
76f897717d325b35,1551765551569,10,-6913.0,-8449.0,9471.0,0.0,0.0,0.0,0.0,0.0,0.0,0
76f897717d325b35,1551765551690,11,-6913.0,-8449.0,9471.0,0.0,0.0,0.0,0.0,0.0,0.0,0
76f897717d325b35,1551765551719,12,-6913.0,-8449.0,9471.0,0.0,0.0,0.0,0.0,0.0,0.0,0
76f897717d325b35,1551765551780,13,-6913.0,-8449.0,9471.0,0.0,0.0,0.0,0.0,0.0,0.0,0
76f897717d325b35,1551765551840,14,-6913.0,-8449.0,9471.0,0.0,0.0,0.0,0.0,0.0,0.0,0
76f897717d325b35,1551765551900,15,-6913.0,-8449.0,9471.0,0.0,0.0,0.0,0.0,0.0,0.0,0
76f897717d325b35,1551765551990,16,-6913.0,-8449.0,9471.0,0.0,0.0,0.0,0.0,0.0,0.0,0
76f897717d325b35,1551765552050,17,-6913.0,-8449.0,9471.0,0.0,0.0,0.0,0.0,0.0,0.0,0
76f897717d325b35,1551765552140,18,-6913.0,-8449.0,9471.0,0.0,0.0,0.0,0.0,0.0,0.0,0
76f897717d325b35,1551765552170,19,-6913.0,-8449.0,9471.0,0.0,0.0,0.0,0.0,0.0,0.0,0
76f897717d325b35,1551765552260,20,-6913.0,-8449.0,9471.0,0.0,0.0,0.0,0.0,0.0,0.0,0
76f897717d325b35,1551765552350,21,-6913.0,-8449.0,9471.0,0.0,0.0,0.0,0.0,0.0,0.0,0
76f897717d325b35,1551765552380,22,-6913.0,-8449.0,9471.0,0.0,0.0,0.0,0.0,0.0,0.0,0
76f897717d325b35,1551765552500,23,-6913.0,-8449.0,9471.0,0.0,0.0,0.0,0.0,0.0,0.0,0
76f897717d325b35,1551765552501,24,-6913.0,-8449.0,9471.0,0.0,0.0,0.0,0.0,0.0,0.0,0
76f897717d325b35,1551765552560,25,-6913.0,-8449.0,9471.0,0.0,0.0,0.0,0.0,0.0,0.0,0
76f897717d325b35,1551765552650,26,-6913.0,-8449.0,9471.0,0.0,0.0,0.0,0.0,0.0,0.0,0
76f897717d325b35,1551765552799,27,-6913.0,-8449.0,9471.0,0.0,0.0,0.0,0.0,0.0,0.0,0
76f897717d325b35,1551765552801,28,-6913.0,-8449.0,9471.0,0.0,0.0,0.0,0.0,0.0,0.0,0
76f897717d325b35,1551765552830,29,-6913.0,-8449.0,9471.0,0.0,0.0,0.0,0.0,0.0,0.0,0
76f897717d325b35,1551765552979,30,-6913.0,-8449.0,9471.0,0.0,0.0,0.0,0.0,0.0,0.0,0
76f897717d325b35,1551765552981,31,-6913.0,-8449.0,9471.0,0.0,0.0,0.0,0.0,0.0,0.0,0
76f897717d325b35,1551765552982,32,-6913.0,-8449.0,9471.0,0.0,0.0,0.0,0.0,0.0,0.0,0
76f897717d325b35,1551765553070,33,-6913.0,-8449.0,9471.0,0.0,0.0,0.0,0.0,0.0,0.0,0
76f897717d325b35,1551765553100,34,-6913.0,-8449.0,9471.0,0.0,0.0,0.0,0.0,0.0,0.0,0
76f897717d325b35,1551765553160,35,-6913.0,-8449.0,9471.0,0.0,0.0,0.0,0.0,0.0,0.0,0
76f897717d325b35,1551765553280,36,-6913.0,-8449.0,9471.0,0.0,0.0,0.0,0.0,0.0,0.0,0
76f897717d325b35,1551765553310,37,-6913.0,-8449.0,9471.0,0.0,0.0,0.0,0.0,0.0,0.0,0
76f897717d325b35,1551765553370,38,-6913.0,-8449.0,9471.0,0.0,0.0,0.0,0.0,0.0,0.0,0
76f897717d325b35,1551765553459,39,-6913.0,-8449.0,9471.0,0.0,0.0,0.0,0.0,0.0,0.0,0
76f897717d325b35,1551765553490,40,-6913.0,-8449.0,9471.0,0.0,0.0,0.0,0.0,0.0,0.0,0
76f897717d325b35,1551765553580,41,-6913.0,-8449.0,9471.0,0.0,0.0,0.0,0.0,0.0,0.0,0
76f897717d325b35,1551765553639,42,-6913.0,-8449.0,9471.0,0.0,0.0,0.0,0.0,0.0,0.0,0
76f897717d325b35,1551765553641,43,-6913.0,-8449.0,9471.0,0.0,0.0,0.0,0.0,0.0,0.0,0
76f897717d325b35,1551765553700,44,-6913.0,-8449.0,9471.0,0.0,0.0,0.0,0.0,0.0,0.0,0
76f897717d325b35,1551765553820,45,-6913.0,-8449.0,9471.0,0.0,0.0,0.0,0.0,0.0,0.0,0
76f897717d325b35,1551765553821,46,-6913.0,-8449.0,9471.0,0.0,0.0,0.0,0.0,0.0,0.0,0
76f897717d325b35,1551765553940,47,-6913.0,-8449.0,9471.0,0.0,0.0,0.0,0.0,0.0,0.0,0
76f897717d325b35,1551765554000,48,-6913.0,-8449.0,9471.0,0.0,0.0,0.0,0.0,0.0,0.0,0
76f897717d325b35,1551765554090,49,-6913.0,-8449.0,9471.0,0.0,0.0,0.0,0.0,0.0,0.0,0
76f897717d325b35,1551765554091,50,-6913.0,-8449.0,9471.0,0.0,0.0,0.0,0.0,0.0,0.0,0
76f897717d325b35,1551765554299,51,-6913.0,-8449.0,9471.0,0.0,0.0,0.0,0.0,0.0,0.0,0
76f897717d325b35,1551765554301,52,-6913.0,-8449.0,9471.0,0.0,0.0,0.0,0.0,0.0,0.0,0
76f897717d325b35,1551765554302,53,-6913.0,-8449.0,9471.0,0.0,0.0,0.0,0.0,0.0,0.0,0
76f897717d325b35,1551765554390,54,-6913.0,-8449.0,9471.0,0.0,0.0,0.0,0.0,0.0,0.0,0
76f897717d325b35,1551765554540,55,-6913.0,-8449.0,9471.0,0.0,0.0,0.0,0.0,0.0,0.0,0
76f897717d325b35,1551765554569,56,-6913.0,-8449.0,9215.0,0.0,0.0,0.0,0.0,0.0,0.0,0
76f897717d325b35,1551765554570,57,-6913.0,-8449.0,9471.0,0.0,0.0,0.0,0.0,0.0,0.0,0
76f897717d325b35,1551765555019,58,-6913.0,-8449.0,9471.0,0.0,0.0,0.0,0.0,0.0,0.0,0
76f897717d325b35,1551765555019,59,-6913.0,-8449.0,9471.0,0.0,0.0,0.0,0.0,0.0,0.0,0
76f897717d325b35,1551765555020,60,-6913.0,-8449.0,9471.0,0.0,0.0,0.0,0.0,0.0,0.0,0
76f897717d325b35,1551765555079,61,-6913.0,-8449.0,9471.0,0.0,0.0,0.0,0.0,0.0,0.0,0
76f897717d325b35,1551765555201,62,-6913.0,-8449.0,9471.0,0.0,0.0,0.0,0.0,0.0,0.0,0
76f897717d325b35,1551765555234,63,-6913.0,-8449.0,9471.0,0.0,0.0,0.0,0.0,0.0,0.0,0
76f897717d325b35,1551765555235,64,-6913.0,-8449.0,9471.0,0.0,0.0,0.0,0.0,0.0,0.0,0
76f897717d325b35,1551765555319,65,-6913.0,-8449.0,9471.0,0.0,0.0,0.0,0.0,0.0,0.0,0
76f897717d325b35,1551765555319,66,-6913.0,-8449.0,9471.0,0.0,0.0,0.0,0.0,0.0,0.0,0
76f897717d325b35,1551765555320,67,-6913.0,-8449.0,9471.0,0.0,0.0,0.0,0.0,0.0,0.0,0
76f897717d325b35,1551765555322,68,-6913.0,-8449.0,9471.0,0.0,0.0,0.0,0.0,0.0,0.0,0
76f897717d325b35,1551765555350,69,-6913.0,-8449.0,9471.0,0.0,0.0,0.0,0.0,0.0,0.0,0
76f897717d325b35,1551765555410,70,-6913.0,-8449.0,9471.0,0.0,0.0,0.0,0.0,0.0,0.0,0
76f897717d325b35,1551765555709,71,-6913.0,-8449.0,9471.0,0.0,0.0,0.0,0.0,0.0,0.0,0
76f897717d325b35,1551765555711,72,-6913.0,-8449.0,9471.0,0.0,0.0,0.0,0.0,0.0,0.0,0
76f897717d325b35,1551765555741,73,-6913.0,-8449.0,9215.0,0.0,0.0,0.0,0.0,0.0,0.0,0
76f897717d325b35,1551765555743,74,-6913.0,-8449.0,9471.0,0.0,0.0,0.0,0.0,0.0,0.0,0
76f897717d325b35,1551765555744,75,-6913.0,-8449.0,9471.0,0.0,0.0,0.0,0.0,0.0,0.0,0
76f897717d325b35,1551765555859,76,-6913.0,-8449.0,9471.0,0.0,0.0,0.0,0.0,0.0,0.0,0
76f897717d325b35,1551765556039,77,-6913.0,-8449.0,9471.0,0.0,0.0,0.0,0.0,0.0,0.0,0
76f897717d325b35,1551765556039,78,-6913.0,-8449.0,9471.0,0.0,0.0,0.0,0.0,0.0,0.0,0
76f897717d325b35,1551765556099,79,-6913.0,-8449.0,9471.0,0.0,0.0,0.0,0.0,0.0,0.0,0
76f897717d325b35,1551765556099,80,-6913.0,-8449.0,9471.0,0.0,0.0,0.0,0.0,0.0,0.0,0
76f897717d325b35,1551765556101,81,-6913.0,-8449.0,9471.0,0.0,0.0,0.0,0.0,0.0,0.0,0
76f897717d325b35,1551765556190,82,-6913.0,-8449.0,9471.0,0.0,0.0,0.0,0.0,0.0,0.0,0
76f897717d325b35,1551765556192,83,-6913.0,-8449.0,9471.0,0.0,0.0,0.0,0.0,0.0,0.0,0
76f897717d325b35,1551765556281,84,-6913.0,-8449.0,9471.0,0.0,0.0,0.0,0.0,0.0,0.0,0
76f897717d325b35,1551765556400,85,-6913.0,-8449.0,9471.0,0.0,0.0,0.0,0.0,0.0,0.0,0
76f897717d325b35,1551765556401,86,-6913.0,-8449.0,9471.0,0.0,0.0,0.0,0.0,0.0,0.0,0
76f897717d325b35,1551765556460,87,-6913.0,-8449.0,9471.0,0.0,0.0,0.0,0.0,0.0,0.0,0
76f897717d325b35,1551765556580,88,-6913.0,-8449.0,9471.0,0.0,0.0,0.0,0.0,0.0,0.0,0
76f897717d325b35,1551765556611,89,-6913.0,-8449.0,9471.0,0.0,0.0,0.0,0.0,0.0,0.0,0
76f897717d325b35,1551765556671,90,-6913.0,-8449.0,9471.0,0.0,0.0,0.0,0.0,0.0,0.0,0
76f897717d325b35,1551765556737,91,-6913.0,-8449.0,9471.0,0.0,0.0,0.0,0.0,0.0,0.0,0
76f897717d325b35,1551765556805,92,-6913.0,-8449.0,9471.0,0.0,0.0,0.0,0.0,0.0,0.0,0
76f897717d325b35,1551765556851,93,-6913.0,-8449.0,9471.0,0.0,0.0,0.0,0.0,0.0,0.0,0
76f897717d325b35,1551765556969,94,-6913.0,-8449.0,9471.0,0.0,0.0,0.0,0.0,0.0,0.0,0
76f897717d325b35,1551765556970,95,-6913.0,-8449.0,9471.0,0.0,0.0,0.0,0.0,0.0,0.0,0
76f897717d325b35,1551765557000,96,-6913.0,-8449.0,9471.0,0.0,0.0,0.0,0.0,0.0,0.0,0
76f897717d325b35,1551765557060,97,-6913.0,-8449.0,9471.0,0.0,0.0,0.0,0.0,0.0,0.0,0
76f897717d325b35,1551765557456,98,-6913.0,-8449.0,9471.0,0.0,0.0,0.0,0.0,0.0,0.0,0
76f897717d325b35,1551765557458,99,-6913.0,-8449.0,9215.0,0.0,0.0,0.0,0.0,0.0,0.0,0
76f897717d325b35,1551765557458,100,-6913.0,-8449.0,9471.0,0.0,0.0,0.0,0.0,0.0,0.0,0
76f897717d325b35,1551765557458,101,-6913.0,-8449.0,9471.0,0.0,0.0,0.0,0.0,0.0,0.0,0
76f897717d325b35,1551765563570,102,-6913.0,-8449.0,9471.0,0.0,0.0,0.0,0.0,0.0,0.0,0
76f897717d325b35,1551765563630,103,-6913.0,-8449.0,9471.0,0.0,0.0,0.0,0.0,0.0,0.0,0
76f897717d325b35,1551765563660,104,-6913.0,-8449.0,9471.0,0.0,0.0,0.0,0.0,0.0,0.0,0
76f897717d325b35,1551765564049,105,-6913.0,-8449.0,9471.0,0.0,0.0,0.0,0.0,0.0,0.0,0
76f897717d325b35,1551765564079,106,-6913.0,-8449.0,9471.0,0.0,0.0,0.0,0.0,0.0,0.0,0
76f897717d325b35,1551765564080,107,-6913.0,-8449.0,9471.0,0.0,0.0,0.0,0.0,0.0,0.0,0
76f897717d325b35,1551765564080,108,-6913.0,-8449.0,9471.0,0.0,0.0,0.0,0.0,0.0,0.0,0
76f897717d325b35,1551765564081,109,-6913.0,-8449.0,9471.0,0.0,0.0,0.0,0.0,0.0,0.0,0
76f897717d325b35,1551765564082,110,-6913.0,-8449.0,9471.0,0.0,0.0,0.0,0.0,0.0,0.0,0
76f897717d325b35,1551765564140,111,-6913.0,-8449.0,9471.0,0.0,0.0,0.0,0.0,0.0,0.0,0
76f897717d325b35,1551765564230,112,-6913.0,-8449.0,9471.0,0.0,0.0,0.0,0.0,0.0,0.0,0
76f897717d325b35,1551765564349,113,-6913.0,-8449.0,9471.0,0.0,0.0,0.0,0.0,0.0,0.0,0
76f897717d325b35,1551765564351,114,-6913.0,-8449.0,9471.0,0.0,0.0,0.0,0.0,0.0,0.0,0
76f897717d325b35,1551765564410,115,-6913.0,-8449.0,9471.0,0.0,0.0,0.0,0.0,0.0,0.0,0
76f897717d325b35,1551765564500,116,-6913.0,-8449.0,9471.0,0.0,0.0,0.0,0.0,0.0,0.0,0
76f897717d325b35,1551765564560,117,-6913.0,-8449.0,9471.0,0.0,0.0,0.0,0.0,0.0,0.0,0
76f897717d325b35,1551765564800,118,-6913.0,-8449.0,9471.0,0.0,0.0,0.0,0.0,0.0,0.0,0
76f897717d325b35,1551765564802,119,-6913.0,-8449.0,9471.0,0.0,0.0,0.0,0.0,0.0,0.0,0
76f897717d325b35,1551765564803,120,-6913.0,-8449.0,9471.0,0.0,0.0,0.0,0.0,0.0,0.0,0
76f897717d325b35,1551765564804,121,-6913.0,-8449.0,9471.0,0.0,0.0,0.0,0.0,0.0,0.0,0
76f897717d325b35,1551765564891,122,-6913.0,-8449.0,9471.0,0.0,0.0,0.0,0.0,0.0,0.0,0
76f897717d325b35,1551765564951,123,-6913.0,-8449.0,9471.0,0.0,0.0,0.0,0.0,0.0,0.0,0
76f897717d325b35,1551765565040,124,-6913.0,-8449.0,9471.0,0.0,0.0,0.0,0.0,0.0,0.0,0
76f897717d325b35,1551765565042,125,-6913.0,-8449.0,9471.0,0.0,0.0,0.0,0.0,0.0,0.0,0
76f897717d325b35,1551765565101,126,-6913.0,-8449.0,9471.0,0.0,0.0,0.0,0.0,0.0,0.0,0
76f897717d325b35,1551765565191,127,-6913.0,-8449.0,9471.0,0.0,0.0,0.0,0.0,0.0,0.0,0
76f897717d325b35,1551765565281,128,-6913.0,-8449.0,9471.0,0.0,0.0,0.0,0.0,0.0,0.0,0
76f897717d325b35,1551765565550,129,-6913.0,-8449.0,9471.0,0.0,0.0,0.0,0.0,0.0,0.0,0
76f897717d325b35,1551765565670,130,-6913.0,-8449.0,9471.0,0.0,0.0,0.0,0.0,0.0,0.0,0
76f897717d325b35,1551765565790,131,-6913.0,-8449.0,9471.0,0.0,0.0,0.0,0.0,0.0,0.0,0
76f897717d325b35,1551765565792,132,-6913.0,-8449.0,9471.0,0.0,0.0,0.0,0.0,0.0,0.0,0
76f897717d325b35,1551765566000,133,-6913.0,-8449.0,9471.0,0.0,0.0,0.0,0.0,0.0,0.0,0
76f897717d325b35,1551765566001,134,-6913.0,-8449.0,9471.0,0.0,0.0,0.0,0.0,0.0,0.0,0
76f897717d325b35,1551765566090,135,-6913.0,-8449.0,9471.0,0.0,0.0,0.0,0.0,0.0,0.0,0
76f897717d325b35,1551765566092,136,-6913.0,-8449.0,9471.0,0.0,0.0,0.0,0.0,0.0,0.0,0
76f897717d325b35,1551765566093,137,-6913.0,-8449.0,9471.0,0.0,0.0,0.0,0.0,0.0,0.0,0
76f897717d325b35,1551765566094,138,-6913.0,-8449.0,9471.0,0.0,0.0,0.0,0.0,0.0,0.0,0
76f897717d325b35,1551765566095,139,-6913.0,-8449.0,9471.0,0.0,0.0,0.0,0.0,0.0,0.0,0
76f897717d325b35,1551765566096,140,-6913.0,-8449.0,9471.0,0.0,0.0,0.0,0.0,0.0,0.0,0
76f897717d325b35,1551765566097,141,-6913.0,-8449.0,9471.0,0.0,0.0,0.0,0.0,0.0,0.0,0
76f897717d325b35,1551765566181,142,-6913.0,-8449.0,9471.0,0.0,0.0,0.0,0.0,0.0,0.0,0
76f897717d325b35,1551765566690,143,-6913.0,-8449.0,9471.0,0.0,0.0,0.0,0.0,0.0,0.0,0
76f897717d325b35,1551765566750,144,-6913.0,-8449.0,9471.0,0.0,0.0,0.0,0.0,0.0,0.0,0
76f897717d325b35,1551765566810,145,-6913.0,-8449.0,9471.0,0.0,0.0,0.0,0.0,0.0,0.0,0
76f897717d325b35,1551765566811,146,-6913.0,-8449.0,9471.0,0.0,0.0,0.0,0.0,0.0,0.0,0
76f897717d325b35,1551765566871,147,-6913.0,-8449.0,9471.0,0.0,0.0,0.0,0.0,0.0,0.0,0
76f897717d325b35,1551765566872,148,-6913.0,-8449.0,9471.0,0.0,0.0,0.0,0.0,0.0,0.0,0
76f897717d325b35,1551765566900,149,-6913.0,-8449.0,9471.0,0.0,0.0,0.0,0.0,0.0,0.0,0
76f897717d325b35,1551765566901,150,-6913.0,-8449.0,9471.0,0.0,0.0,0.0,0.0,0.0,0.0,0
76f897717d325b35,1551765566903,151,-6913.0,-8449.0,9471.0,0.0,0.0,0.0,0.0,0.0,0.0,0
76f897717d325b35,1551765566962,152,-6913.0,-8449.0,9471.0,0.0,0.0,0.0,0.0,0.0,0.0,0
76f897717d325b35,1551765567200,153,-6913.0,-8449.0,9471.0,0.0,0.0,0.0,0.0,0.0,0.0,0
76f897717d325b35,1551765567202,154,-6913.0,-8449.0,9471.0,0.0,0.0,0.0,0.0,0.0,0.0,0
76f897717d325b35,1551765567203,155,-6913.0,-8449.0,9471.0,0.0,0.0,0.0,0.0,0.0,0.0,0
76f897717d325b35,1551765567290,156,-6913.0,-8449.0,9471.0,0.0,0.0,0.0,0.0,0.0,0.0,0
76f897717d325b35,1551765567291,157,-6913.0,-8449.0,9471.0,0.0,0.0,0.0,0.0,0.0,0.0,0
76f897717d325b35,1551765567440,158,-6913.0,-8449.0,9471.0,0.0,0.0,0.0,0.0,0.0,0.0,0
76f897717d325b35,1551765567442,159,-6913.0,-8449.0,9471.0,0.0,0.0,0.0,0.0,0.0,0.0,0
76f897717d325b35,1551765567590,160,-6913.0,-8449.0,9471.0,0.0,0.0,0.0,0.0,0.0,0.0,0
76f897717d325b35,1551765567592,161,-6913.0,-8449.0,9471.0,0.0,0.0,0.0,0.0,0.0,0.0,0
76f897717d325b35,1551765567621,162,-6913.0,-8449.0,9471.0,0.0,0.0,0.0,0.0,0.0,0.0,0
76f897717d325b35,1551765567800,163,-6913.0,-8449.0,9471.0,0.0,0.0,0.0,0.0,0.0,0.0,0
76f897717d325b35,1551765567890,164,-6913.0,-8449.0,9471.0,0.0,0.0,0.0,0.0,0.0,0.0,0
76f897717d325b35,1551765567920,165,-6913.0,-8449.0,9471.0,0.0,0.0,0.0,0.0,0.0,0.0,0
76f897717d325b35,1551765567922,166,-6913.0,-8449.0,9471.0,0.0,0.0,0.0,0.0,0.0,0.0,0
76f897717d325b35,1551765568010,167,-6913.0,-8449.0,9471.0,0.0,0.0,0.0,0.0,0.0,0.0,0
76f897717d325b35,1551765568160,168,-6913.0,-8449.0,9471.0,0.0,0.0,0.0,0.0,0.0,0.0,0
76f897717d325b35,1551765568280,169,-6913.0,-8449.0,9471.0,0.0,0.0,0.0,0.0,0.0,0.0,0
76f897717d325b35,1551765568310,170,-6913.0,-8449.0,9471.0,0.0,0.0,0.0,0.0,0.0,0.0,0
76f897717d325b35,1551765568370,171,-6913.0,-8449.0,9471.0,0.0,0.0,0.0,0.0,0.0,0.0,0
76f897717d325b35,1551765568371,172,-6913.0,-8449.0,9471.0,0.0,0.0,0.0,0.0,0.0,0.0,0
76f897717d325b35,1551765568372,173,-6913.0,-8449.0,9471.0,0.0,0.0,0.0,0.0,0.0,0.0,0
76f897717d325b35,1551765568401,174,-6913.0,-8449.0,9471.0,0.0,0.0,0.0,0.0,0.0,0.0,0
76f897717d325b35,1551765568491,175,-6913.0,-8449.0,9471.0,0.0,0.0,0.0,0.0,0.0,0.0,0
76f897717d325b35,1551765568581,176,-6913.0,-8449.0,9471.0,0.0,0.0,0.0,0.0,0.0,0.0,0
76f897717d325b35,1551765568611,177,-6913.0,-8449.0,9471.0,0.0,0.0,0.0,0.0,0.0,0.0,0
76f897717d325b35,1551765568850,178,-6913.0,-8449.0,9471.0,0.0,0.0,0.0,0.0,0.0,0.0,0
76f897717d325b35,1551765568880,179,-6913.0,-8449.0,9471.0,0.0,0.0,0.0,0.0,0.0,0.0,0
76f897717d325b35,1551765568882,180,-6913.0,-8449.0,9471.0,0.0,0.0,0.0,0.0,0.0,0.0,0
76f897717d325b35,1551765568882,181,-6913.0,-8449.0,9471.0,0.0,0.0,0.0,0.0,0.0,0.0,0
76f897717d325b35,1551765568941,182,-6913.0,-8449.0,9471.0,0.0,0.0,0.0,0.0,0.0,0.0,0
76f897717d325b35,1551765569001,183,-6913.0,-8449.0,9471.0,0.0,0.0,0.0,0.0,0.0,0.0,0
76f897717d325b35,1551765569121,184,-6913.0,-8449.0,9471.0,0.0,0.0,0.0,0.0,0.0,0.0,0
76f897717d325b35,1551765569151,185,-6913.0,-8449.0,9471.0,0.0,0.0,0.0,0.0,0.0,0.0,0
76f897717d325b35,1551765569211,186,-6913.0,-8449.0,9471.0,0.0,0.0,0.0,0.0,0.0,0.0,0
76f897717d325b35,1551765569271,187,-6913.0,-8449.0,9471.0,0.0,0.0,0.0,0.0,0.0,0.0,0
76f897717d325b35,1551765569331,188,-6913.0,-8449.0,9471.0,0.0,0.0,0.0,0.0,0.0,0.0,0
76f897717d325b35,1551765569391,189,-6913.0,-8449.0,9471.0,0.0,0.0,0.0,0.0,0.0,0.0,0
76f897717d325b35,1551765569481,190,-6913.0,-8449.0,9471.0,0.0,0.0,0.0,0.0,0.0,0.0,0
76f897717d325b35,1551765569541,191,-6913.0,-8449.0,9471.0,0.0,0.0,0.0,0.0,0.0,0.0,0
76f897717d325b35,1551765569601,192,-6913.0,-8449.0,9471.0,0.0,0.0,0.0,0.0,0.0,0.0,0
76f897717d325b35,1551765569661,193,-6913.0,-8449.0,9471.0,0.0,0.0,0.0,0.0,0.0,0.0,0
76f897717d325b35,1551765569721,194,-6913.0,-8449.0,9471.0,0.0,0.0,0.0,0.0,0.0,0.0,0
76f897717d325b35,1551765569841,195,-6913.0,-8449.0,9471.0,0.0,0.0,0.0,0.0,0.0,0.0,0
76f897717d325b35,1551765569871,196,-6913.0,-8449.0,9471.0,0.0,0.0,0.0,0.0,0.0,0.0,0
76f897717d325b35,1551765569931,197,-6913.0,-8449.0,9471.0,0.0,0.0,0.0,0.0,0.0,0.0,0
76f897717d325b35,1551765569991,198,-6913.0,-8449.0,9471.0,0.0,0.0,0.0,0.0,0.0,0.0,0
76f897717d325b35,1551765570051,199,-6913.0,-8449.0,9471.0,0.0,0.0,0.0,0.0,0.0,0.0,0
76f897717d325b35,1551765570141,200,-6913.0,-8449.0,9471.0,0.0,0.0,0.0,0.0,0.0,0.0,0
76f897717d325b35,1551765570231,201,-6913.0,-8449.0,9471.0,0.0,0.0,0.0,0.0,0.0,0.0,0
76f897717d325b35,1551765570261,202,-6913.0,-8449.0,9471.0,0.0,0.0,0.0,0.0,0.0,0.0,0
76f897717d325b35,1551765570321,203,-6913.0,-8449.0,9471.0,0.0,0.0,0.0,0.0,0.0,0.0,0
76f897717d325b35,1551765570381,204,-6913.0,-8449.0,9471.0,0.0,0.0,0.0,0.0,0.0,0.0,0
76f897717d325b35,1551765570471,205,-6913.0,-8449.0,9471.0,0.0,0.0,0.0,0.0,0.0,0.0,0
76f897717d325b35,1551765570561,206,-6913.0,-8449.0,9471.0,0.0,0.0,0.0,0.0,0.0,0.0,0
76f897717d325b35,1551765570621,207,-6913.0,-8449.0,9471.0,0.0,0.0,0.0,0.0,0.0,0.0,0
76f897717d325b35,1551765570681,208,-6913.0,-8449.0,9471.0,0.0,0.0,0.0,0.0,0.0,0.0,0
76f897717d325b35,1551765570711,209,-6913.0,-8449.0,9471.0,0.0,0.0,0.0,0.0,0.0,0.0,0
76f897717d325b35,1551765571280,210,-6913.0,-8449.0,9471.0,0.0,0.0,0.0,0.0,0.0,0.0,0
76f897717d325b35,1551765571282,211,-6913.0,-8449.0,9471.0,0.0,0.0,0.0,0.0,0.0,0.0,0
76f897717d325b35,1551765571283,212,-6913.0,-8449.0,9471.0,0.0,0.0,0.0,0.0,0.0,0.0,0
76f897717d325b35,1551765571285,213,-6913.0,-8449.0,9471.0,0.0,0.0,0.0,0.0,0.0,0.0,0
76f897717d325b35,1551765571286,214,-6913.0,-8449.0,9471.0,0.0,0.0,0.0,0.0,0.0,0.0,0
76f897717d325b35,1551765571287,215,-6913.0,-8449.0,9215.0,0.0,0.0,0.0,0.0,0.0,0.0,0
76f897717d325b35,1551765571288,216,-6913.0,-8449.0,9471.0,0.0,0.0,0.0,0.0,0.0,0.0,0
76f897717d325b35,1551765571400,217,-6913.0,-8449.0,9471.0,0.0,0.0,0.0,0.0,0.0,0.0,0
76f897717d325b35,1551765571402,218,-6913.0,-8449.0,9471.0,0.0,0.0,0.0,0.0,0.0,0.0,0
76f897717d325b35,1551765571521,219,-6913.0,-8449.0,9471.0,0.0,0.0,0.0,0.0,0.0,0.0,0
76f897717d325b35,1551765571522,220,-6913.0,-8449.0,9471.0,0.0,0.0,0.0,0.0,0.0,0.0,0
76f897717d325b35,1551765571611,221,-6913.0,-8449.0,9471.0,0.0,0.0,0.0,0.0,0.0,0.0,0
76f897717d325b35,1551765571760,222,-6913.0,-8449.0,9471.0,0.0,0.0,0.0,0.0,0.0,0.0,0
76f897717d325b35,1551765571790,223,-6913.0,-8449.0,9471.0,0.0,0.0,0.0,0.0,0.0,0.0,0
76f897717d325b35,1551765572060,224,-6913.0,-8449.0,9471.0,0.0,0.0,0.0,0.0,0.0,0.0,0
76f897717d325b35,1551765572062,225,-6913.0,-8449.0,9471.0,0.0,0.0,0.0,0.0,0.0,0.0,0
76f897717d325b35,1551765572063,226,-6913.0,-8449.0,9471.0,0.0,0.0,0.0,0.0,0.0,0.0,0
76f897717d325b35,1551765572064,227,-6913.0,-8449.0,9471.0,0.0,0.0,0.0,0.0,0.0,0.0,0
76f897717d325b35,1551765572065,228,-6913.0,-8449.0,9471.0,0.0,0.0,0.0,0.0,0.0,0.0,0
76f897717d325b35,1551765572121,229,-6913.0,-8449.0,9471.0,0.0,0.0,0.0,0.0,0.0,0.0,0
76f897717d325b35,1551765572181,230,-6913.0,-8449.0,9471.0,0.0,0.0,0.0,0.0,0.0,0.0,0
76f897717d325b35,1551765572241,231,-6913.0,-8449.0,9471.0,0.0,0.0,0.0,0.0,0.0,0.0,0
76f897717d325b35,1551765572301,232,-6913.0,-8449.0,9471.0,0.0,0.0,0.0,0.0,0.0,0.0,0
76f897717d325b35,1551765572361,233,-6913.0,-8449.0,9471.0,0.0,0.0,0.0,0.0,0.0,0.0,0
76f897717d325b35,1551765572451,234,-6913.0,-8449.0,9471.0,0.0,0.0,0.0,0.0,0.0,0.0,0
76f897717d325b35,1551765572511,235,-6913.0,-8449.0,9471.0,0.0,0.0,0.0,0.0,0.0,0.0,0
76f897717d325b35,1551765572571,236,-6913.0,-8449.0,9471.0,0.0,0.0,0.0,0.0,0.0,0.0,0
76f897717d325b35,1551765572632,237,-6913.0,-8449.0,9471.0,0.0,0.0,0.0,0.0,0.0,0.0,0
76f897717d325b35,1551765572721,238,-6913.0,-8449.0,9471.0,0.0,0.0,0.0,0.0,0.0,0.0,0
76f897717d325b35,1551765572872,239,-6913.0,-8449.0,9471.0,0.0,0.0,0.0,0.0,0.0,0.0,0
76f897717d325b35,1551765572873,240,-6913.0,-8449.0,9471.0,0.0,0.0,0.0,0.0,0.0,0.0,0
76f897717d325b35,1551765573027,241,-6913.0,-8449.0,9471.0,0.0,0.0,0.0,0.0,0.0,0.0,0
76f897717d325b35,1551765573028,242,-6913.0,-8449.0,9471.0,0.0,0.0,0.0,0.0,0.0,0.0,0
76f897717d325b35,1551765573030,243,-6913.0,-8449.0,9471.0,0.0,0.0,0.0,0.0,0.0,0.0,0
76f897717d325b35,1551765573290,244,-6913.0,-8449.0,9471.0,0.0,0.0,0.0,0.0,0.0,0.0,0
76f897717d325b35,1551765573292,245,-6913.0,-8449.0,9471.0,0.0,0.0,0.0,0.0,0.0,0.0,0
76f897717d325b35,1551765573320,246,-6913.0,-8449.0,9471.0,0.0,0.0,0.0,0.0,0.0,0.0,0
76f897717d325b35,1551765573380,247,-6913.0,-8449.0,9471.0,0.0,0.0,0.0,0.0,0.0,0.0,0
76f897717d325b35,1551765573382,248,-6913.0,-8449.0,9471.0,0.0,0.0,0.0,0.0,0.0,0.0,0
76f897717d325b35,1551765573440,249,-6913.0,-8449.0,9471.0,0.0,0.0,0.0,0.0,0.0,0.0,0
76f897717d325b35,1551765573530,250,-6913.0,-8449.0,9471.0,0.0,0.0,0.0,0.0,0.0,0.0,0
76f897717d325b35,1551765573561,251,-6913.0,-8449.0,9471.0,0.0,0.0,0.0,0.0,0.0,0.0,0
76f897717d325b35,1551765573650,252,-6913.0,-8449.0,9471.0,0.0,0.0,0.0,0.0,0.0,0.0,0
76f897717d325b35,1551765573680,253,-6913.0,-8449.0,9471.0,0.0,0.0,0.0,0.0,0.0,0.0,0
76f897717d325b35,1551765573770,254,-6913.0,-8449.0,9471.0,0.0,0.0,0.0,0.0,0.0,0.0,0
76f897717d325b35,1551765573861,255,-6913.0,-8449.0,9471.0,0.0,0.0,0.0,0.0,0.0,0.0,0
76f897717d325b35,1551765573890,256,-6913.0,-8449.0,9471.0,0.0,0.0,0.0,0.0,0.0,0.0,0
76f897717d325b35,1551765573951,257,-6913.0,-8449.0,9471.0,0.0,0.0,0.0,0.0,0.0,0.0,0
76f897717d325b35,1551765574011,258,-6913.0,-8449.0,9471.0,0.0,0.0,0.0,0.0,0.0,0.0,0
76f897717d325b35,1551765574101,259,-6913.0,-8449.0,9471.0,0.0,0.0,0.0,0.0,0.0,0.0,0
76f897717d325b35,1551765574161,260,-6913.0,-8449.0,9471.0,0.0,0.0,0.0,0.0,0.0,0.0,0
76f897717d325b35,1551765574221,261,-6913.0,-8449.0,9471.0,0.0,0.0,0.0,0.0,0.0,0.0,0
76f897717d325b35,1551765574281,262,-6913.0,-8449.0,9471.0,0.0,0.0,0.0,0.0,0.0,0.0,0
76f897717d325b35,1551765574372,263,-6913.0,-8449.0,9471.0,0.0,0.0,0.0,0.0,0.0,0.0,0
76f897717d325b35,1551765574430,264,-6913.0,-8449.0,9471.0,0.0,0.0,0.0,0.0,0.0,0.0,0
76f897717d325b35,1551765574491,265,-6913.0,-8449.0,9471.0,0.0,0.0,0.0,0.0,0.0,0.0,0
76f897717d325b35,1551765574551,266,-6913.0,-8449.0,9471.0,0.0,0.0,0.0,0.0,0.0,0.0,0
76f897717d325b35,1551765574611,267,-6913.0,-8449.0,9471.0,0.0,0.0,0.0,0.0,0.0,0.0,0
76f897717d325b35,1551765574671,268,-6913.0,-8449.0,9471.0,0.0,0.0,0.0,0.0,0.0,0.0,0
76f897717d325b35,1551765574761,269,-6913.0,-8449.0,9471.0,0.0,0.0,0.0,0.0,0.0,0.0,0
76f897717d325b35,1551765574821,270,-6913.0,-8449.0,9471.0,0.0,0.0,0.0,0.0,0.0,0.0,0
76f897717d325b35,1551765574881,271,-6913.0,-8449.0,9471.0,0.0,0.0,0.0,0.0,0.0,0.0,0
76f897717d325b35,1551765574941,272,-6913.0,-8449.0,9471.0,0.0,0.0,0.0,0.0,0.0,0.0,0
76f897717d325b35,1551765575001,273,-6913.0,-8449.0,9471.0,0.0,0.0,0.0,0.0,0.0,0.0,0
76f897717d325b35,1551765575091,274,-6913.0,-8449.0,9471.0,0.0,0.0,0.0,0.0,0.0,0.0,0
76f897717d325b35,1551765575151,275,-6913.0,-8449.0,9471.0,0.0,0.0,0.0,0.0,0.0,0.0,0
76f897717d325b35,1551765575211,276,-6913.0,-8449.0,9471.0,0.0,0.0,0.0,0.0,0.0,0.0,0
76f897717d325b35,1551765575301,277,-6913.0,-8449.0,9471.0,0.0,0.0,0.0,0.0,0.0,0.0,0
76f897717d325b35,1551765575331,278,-6913.0,-8449.0,9471.0,0.0,0.0,0.0,0.0,0.0,0.0,0
76f897717d325b35,1551765575450,279,-6913.0,-8449.0,9471.0,0.0,0.0,0.0,0.0,0.0,0.0,0
76f897717d325b35,1551765575481,280,-6913.0,-8449.0,9471.0,0.0,0.0,0.0,0.0,0.0,0.0,0
76f897717d325b35,1551765575541,281,-6913.0,-8449.0,9471.0,0.0,0.0,0.0,0.0,0.0,0.0,0
76f897717d325b35,1551765575601,282,-6913.0,-8449.0,9471.0,0.0,0.0,0.0,0.0,0.0,0.0,0
76f897717d325b35,1551765575661,283,-6913.0,-8449.0,9471.0,0.0,0.0,0.0,0.0,0.0,0.0,0
76f897717d325b35,1551765575781,284,-6913.0,-8449.0,9471.0,0.0,0.0,0.0,0.0,0.0,0.0,0
76f897717d325b35,1551765575811,285,-6913.0,-8449.0,9215.0,0.0,0.0,0.0,0.0,0.0,0.0,0
76f897717d325b35,1551765575901,286,-6913.0,-8449.0,9471.0,0.0,0.0,0.0,0.0,0.0,0.0,0
76f897717d325b35,1551765575931,287,-6913.0,-8449.0,9471.0,0.0,0.0,0.0,0.0,0.0,0.0,0
76f897717d325b35,1551765575991,288,-6913.0,-8449.0,9471.0,0.0,0.0,0.0,0.0,0.0,0.0,0
76f897717d325b35,1551765576081,289,-6913.0,-8449.0,9471.0,0.0,0.0,0.0,0.0,0.0,0.0,0
76f897717d325b35,1551765576141,290,-6913.0,-8449.0,9471.0,0.0,0.0,0.0,0.0,0.0,0.0,0
76f897717d325b35,1551765576201,291,-6913.0,-8449.0,9471.0,0.0,0.0,0.0,0.0,0.0,0.0,0
76f897717d325b35,1551765576261,292,-6913.0,-8449.0,9471.0,0.0,0.0,0.0,0.0,0.0,0.0,0
76f897717d325b35,1551765576321,293,-6913.0,-8449.0,9471.0,0.0,0.0,0.0,0.0,0.0,0.0,0
76f897717d325b35,1551765576411,294,-6913.0,-8449.0,9471.0,0.0,0.0,0.0,0.0,0.0,0.0,0
76f897717d325b35,1551765576501,295,-6913.0,-8449.0,9471.0,0.0,0.0,0.0,0.0,0.0,0.0,0
76f897717d325b35,1551765576531,296,-6913.0,-8449.0,9471.0,0.0,0.0,0.0,0.0,0.0,0.0,0
76f897717d325b35,1551765576650,297,-6913.0,-8449.0,9471.0,0.0,0.0,0.0,0.0,0.0,0.0,0
76f897717d325b35,1551765576652,298,-6913.0,-8449.0,9471.0,0.0,0.0,0.0,0.0,0.0,0.0,0
76f897717d325b35,1551765576741,299,-6913.0,-8449.0,9215.0,0.0,0.0,0.0,0.0,0.0,0.0,0
76f897717d325b35,1551765576801,300,-6913.0,-8449.0,9471.0,0.0,0.0,0.0,0.0,0.0,0.0,0
76f897717d325b35,1551765576861,301,-6913.0,-8449.0,9471.0,0.0,0.0,0.0,0.0,0.0,0.0,0
76f897717d325b35,1551765576921,302,-6913.0,-8449.0,9215.0,0.0,0.0,0.0,0.0,0.0,0.0,0
76f897717d325b35,1551765576981,303,-6913.0,-8449.0,9471.0,0.0,0.0,0.0,0.0,0.0,0.0,0
76f897717d325b35,1551765577101,304,-6913.0,-8449.0,9471.0,0.0,0.0,0.0,0.0,0.0,0.0,0
76f897717d325b35,1551765577131,305,-6913.0,-8449.0,9471.0,0.0,0.0,0.0,0.0,0.0,0.0,0
76f897717d325b35,1551765577221,306,-6913.0,-8449.0,9471.0,0.0,0.0,0.0,0.0,0.0,0.0,0
76f897717d325b35,1551765577251,307,-6913.0,-8449.0,9471.0,0.0,0.0,0.0,0.0,0.0,0.0,0
76f897717d325b35,1551765577341,308,-6913.0,-8449.0,9471.0,0.0,0.0,0.0,0.0,0.0,0.0,0
76f897717d325b35,1551765577401,309,-6913.0,-8449.0,9471.0,0.0,0.0,0.0,0.0,0.0,0.0,0
76f897717d325b35,1551765577461,310,-6913.0,-8449.0,9471.0,0.0,0.0,0.0,0.0,0.0,0.0,0
76f897717d325b35,1551765577521,311,-6913.0,-8449.0,9471.0,0.0,0.0,0.0,0.0,0.0,0.0,0
76f897717d325b35,1551765577611,312,-6913.0,-8193.0,9471.0,0.0,0.0,0.0,0.0,0.0,0.0,0
76f897717d325b35,1551765577641,313,-6913.0,-8449.0,9471.0,0.0,0.0,0.0,0.0,0.0,0.0,0
76f897717d325b35,1551765577731,314,-6913.0,-8449.0,9471.0,0.0,0.0,0.0,0.0,0.0,0.0,0
76f897717d325b35,1551765577791,315,-6913.0,-8449.0,9471.0,0.0,0.0,0.0,0.0,0.0,0.0,0
76f897717d325b35,1551765577851,316,-6913.0,-8449.0,9471.0,0.0,0.0,0.0,0.0,0.0,0.0,0
76f897717d325b35,1551765577911,317,-6913.0,-8449.0,9471.0,0.0,0.0,0.0,0.0,0.0,0.0,0
76f897717d325b35,1551765577971,318,-6913.0,-8449.0,9471.0,0.0,0.0,0.0,0.0,0.0,0.0,0
76f897717d325b35,1551765578061,319,-6913.0,-8449.0,9471.0,0.0,0.0,0.0,0.0,0.0,0.0,0
76f897717d325b35,1551765578121,320,-6913.0,-8449.0,9471.0,0.0,0.0,0.0,0.0,0.0,0.0,0
76f897717d325b35,1551765578181,321,-6913.0,-8449.0,9471.0,0.0,0.0,0.0,0.0,0.0,0.0,0
76f897717d325b35,1551765578241,322,-6913.0,-8449.0,9471.0,0.0,0.0,0.0,0.0,0.0,0.0,0
76f897717d325b35,1551765578331,323,-6913.0,-8449.0,9471.0,0.0,0.0,0.0,0.0,0.0,0.0,0
76f897717d325b35,1551765578391,324,-6913.0,-8449.0,9471.0,0.0,0.0,0.0,0.0,0.0,0.0,0
76f897717d325b35,1551765578451,325,-6913.0,-8449.0,9471.0,0.0,0.0,0.0,0.0,0.0,0.0,0
76f897717d325b35,1551765578511,326,-6913.0,-8449.0,9471.0,0.0,0.0,0.0,0.0,0.0,0.0,0
76f897717d325b35,1551765578601,327,-6913.0,-8449.0,9471.0,0.0,0.0,0.0,0.0,0.0,0.0,0
76f897717d325b35,1551765578661,328,-6913.0,-8449.0,9471.0,0.0,0.0,0.0,0.0,0.0,0.0,0
76f897717d325b35,1551765578721,329,-6913.0,-8449.0,9471.0,0.0,0.0,0.0,0.0,0.0,0.0,0
76f897717d325b35,1551765578781,330,-6913.0,-8449.0,9471.0,0.0,0.0,0.0,0.0,0.0,0.0,0
76f897717d325b35,1551765578841,331,-6913.0,-8449.0,9471.0,0.0,0.0,0.0,0.0,0.0,0.0,0
76f897717d325b35,1551765578901,332,-6913.0,-8449.0,9471.0,0.0,0.0,0.0,0.0,0.0,0.0,0
76f897717d325b35,1551765578991,333,-6913.0,-8449.0,9471.0,0.0,0.0,0.0,0.0,0.0,0.0,0
76f897717d325b35,1551765579081,334,-6913.0,-8449.0,9471.0,0.0,0.0,0.0,0.0,0.0,0.0,0
76f897717d325b35,1551765579111,335,-6913.0,-8449.0,9471.0,0.0,0.0,0.0,0.0,0.0,0.0,0
76f897717d325b35,1551765579171,336,-6913.0,-8449.0,9471.0,0.0,0.0,0.0,0.0,0.0,0.0,0
76f897717d325b35,1551765579231,337,-6913.0,-8449.0,9471.0,0.0,0.0,0.0,0.0,0.0,0.0,0
76f897717d325b35,1551765579351,338,-6913.0,-8449.0,9471.0,0.0,0.0,0.0,0.0,0.0,0.0,0
76f897717d325b35,1551765579381,339,-6913.0,-8449.0,9471.0,0.0,0.0,0.0,0.0,0.0,0.0,0
76f897717d325b35,1551765579441,340,-6913.0,-8449.0,9471.0,0.0,0.0,0.0,0.0,0.0,0.0,0
76f897717d325b35,1551765579501,341,-6913.0,-8449.0,9471.0,0.0,0.0,0.0,0.0,0.0,0.0,0
76f897717d325b35,1551765579561,342,-6913.0,-8449.0,9471.0,0.0,0.0,0.0,0.0,0.0,0.0,0
76f897717d325b35,1551765579651,343,-6913.0,-8449.0,9471.0,0.0,0.0,0.0,0.0,0.0,0.0,0
76f897717d325b35,1551765579711,344,-6913.0,-8449.0,9471.0,0.0,0.0,0.0,0.0,0.0,0.0,0
76f897717d325b35,1551765579771,345,-6913.0,-8449.0,9471.0,0.0,0.0,0.0,0.0,0.0,0.0,0
76f897717d325b35,1551765579831,346,-6913.0,-8449.0,9471.0,0.0,0.0,0.0,0.0,0.0,0.0,0
76f897717d325b35,1551765579921,347,-6913.0,-8449.0,9471.0,0.0,0.0,0.0,0.0,0.0,0.0,0
76f897717d325b35,1551765579981,348,-6913.0,-8449.0,9471.0,0.0,0.0,0.0,0.0,0.0,0.0,0
76f897717d325b35,1551765580041,349,-6913.0,-8449.0,9471.0,0.0,0.0,0.0,0.0,0.0,0.0,0
76f897717d325b35,1551765580101,350,-6913.0,-8449.0,9471.0,0.0,0.0,0.0,0.0,0.0,0.0,0
76f897717d325b35,1551765580220,351,-6913.0,-8449.0,9471.0,0.0,0.0,0.0,0.0,0.0,0.0,0
76f897717d325b35,1551765580222,352,-6913.0,-8449.0,9471.0,0.0,0.0,0.0,0.0,0.0,0.0,0
76f897717d325b35,1551765580311,353,-6913.0,-8449.0,9471.0,0.0,0.0,0.0,0.0,0.0,0.0,0
76f897717d325b35,1551765580371,354,-6913.0,-8449.0,9471.0,0.0,0.0,0.0,0.0,0.0,0.0,0
76f897717d325b35,1551765580430,355,-6913.0,-8449.0,9471.0,0.0,0.0,0.0,0.0,0.0,0.0,0
76f897717d325b35,1551765580491,356,-6913.0,-8449.0,9471.0,0.0,0.0,0.0,0.0,0.0,0.0,0
76f897717d325b35,1551765580551,357,-6913.0,-8449.0,9471.0,0.0,0.0,0.0,0.0,0.0,0.0,0
76f897717d325b35,1551765580641,358,-6913.0,-8449.0,9471.0,0.0,0.0,0.0,0.0,0.0,0.0,0
76f897717d325b35,1551765580701,359,-6913.0,-8449.0,9471.0,0.0,0.0,0.0,0.0,0.0,0.0,0
76f897717d325b35,1551765580761,360,-6913.0,-8449.0,9215.0,0.0,0.0,0.0,0.0,0.0,0.0,0
76f897717d325b35,1551765580821,361,-6913.0,-8449.0,9471.0,0.0,0.0,0.0,0.0,0.0,0.0,0
76f897717d325b35,1551765580881,362,-6913.0,-8449.0,9471.0,0.0,0.0,0.0,0.0,0.0,0.0,0
76f897717d325b35,1551765580971,363,-6913.0,-8449.0,9471.0,0.0,0.0,0.0,0.0,0.0,0.0,0
76f897717d325b35,1551765581031,364,-6913.0,-8449.0,9471.0,0.0,0.0,0.0,0.0,0.0,0.0,0
76f897717d325b35,1551765581091,365,-6913.0,-8449.0,9471.0,0.0,0.0,0.0,0.0,0.0,0.0,0
76f897717d325b35,1551765581151,366,-6913.0,-8449.0,9471.0,0.0,0.0,0.0,0.0,0.0,0.0,0
76f897717d325b35,1551765581212,367,-6913.0,-8449.0,9471.0,0.0,0.0,0.0,0.0,0.0,0.0,0
76f897717d325b35,1551765581301,368,-6913.0,-8449.0,9471.0,0.0,0.0,0.0,0.0,0.0,0.0,0
76f897717d325b35,1551765581361,369,-6913.0,-8449.0,9471.0,0.0,0.0,0.0,0.0,0.0,0.0,0
76f897717d325b35,1551765581421,370,-6913.0,-8449.0,9471.0,0.0,0.0,0.0,0.0,0.0,0.0,0
76f897717d325b35,1551765581481,371,-6913.0,-8449.0,9471.0,0.0,0.0,0.0,0.0,0.0,0.0,0
76f897717d325b35,1551765581541,372,-6913.0,-8449.0,9471.0,0.0,0.0,0.0,0.0,0.0,0.0,0
76f897717d325b35,1551765581661,373,-6913.0,-8449.0,9471.0,0.0,0.0,0.0,0.0,0.0,0.0,0
76f897717d325b35,1551765581691,374,-6913.0,-8449.0,9471.0,0.0,0.0,0.0,0.0,0.0,0.0,0
76f897717d325b35,1551765581751,375,-6913.0,-8449.0,9471.0,0.0,0.0,0.0,0.0,0.0,0.0,0
76f897717d325b35,1551765581811,376,-6913.0,-8449.0,9471.0,0.0,0.0,0.0,0.0,0.0,0.0,0
76f897717d325b35,1551765581871,377,-6913.0,-8449.0,9471.0,0.0,0.0,0.0,0.0,0.0,0.0,0
76f897717d325b35,1551765581961,378,-6913.0,-8449.0,9471.0,0.0,0.0,0.0,0.0,0.0,0.0,0
76f897717d325b35,1551765582051,379,-6913.0,-8449.0,9471.0,0.0,0.0,0.0,0.0,0.0,0.0,0
76f897717d325b35,1551765582081,380,-6913.0,-8449.0,9471.0,0.0,0.0,0.0,0.0,0.0,0.0,0
76f897717d325b35,1551765582171,381,-6913.0,-8449.0,9471.0,0.0,0.0,0.0,0.0,0.0,0.0,0
76f897717d325b35,1551765582201,382,-6913.0,-8449.0,9471.0,0.0,0.0,0.0,0.0,0.0,0.0,0
76f897717d325b35,1551765582291,383,-6913.0,-8449.0,9471.0,0.0,0.0,0.0,0.0,0.0,0.0,0
76f897717d325b35,1551765582351,384,-6913.0,-8449.0,9471.0,0.0,0.0,0.0,0.0,0.0,0.0,0
76f897717d325b35,1551765582440,385,-6913.0,-8449.0,9471.0,0.0,0.0,0.0,0.0,0.0,0.0,0
76f897717d325b35,1551765582471,386,-6913.0,-8449.0,9471.0,0.0,0.0,0.0,0.0,0.0,0.0,0
76f897717d325b35,1551765582531,387,-6913.0,-8449.0,9471.0,0.0,0.0,0.0,0.0,0.0,0.0,0
76f897717d325b35,1551765582622,388,-6913.0,-8449.0,9471.0,0.0,0.0,0.0,0.0,0.0,0.0,0
76f897717d325b35,1551765582681,389,-6913.0,-8449.0,9471.0,0.0,0.0,0.0,0.0,0.0,0.0,0
76f897717d325b35,1551765582741,390,-6913.0,-8449.0,9471.0,0.0,0.0,0.0,0.0,0.0,0.0,0
76f897717d325b35,1551765582860,391,-6913.0,-8449.0,9471.0,0.0,0.0,0.0,0.0,0.0,0.0,0
76f897717d325b35,1551765582862,392,-6913.0,-8449.0,9471.0,0.0,0.0,0.0,0.0,0.0,0.0,0
76f897717d325b35,1551765582952,393,-6913.0,-8449.0,9471.0,0.0,0.0,0.0,0.0,0.0,0.0,0
76f897717d325b35,1551765583041,394,-6913.0,-8449.0,9471.0,0.0,0.0,0.0,0.0,0.0,0.0,0
76f897717d325b35,1551765583071,395,-6913.0,-8449.0,9471.0,0.0,0.0,0.0,0.0,0.0,0.0,0
76f897717d325b35,1551765583161,396,-6913.0,-8449.0,9471.0,0.0,0.0,0.0,0.0,0.0,0.0,0
76f897717d325b35,1551765583191,397,-6913.0,-8449.0,9471.0,0.0,0.0,0.0,0.0,0.0,0.0,0
76f897717d325b35,1551765583281,398,-6913.0,-8449.0,9471.0,0.0,0.0,0.0,0.0,0.0,0.0,0
76f897717d325b35,1551765583400,399,-6913.0,-8449.0,9471.0,0.0,0.0,0.0,0.0,0.0,0.0,0
76f897717d325b35,1551765583402,400,-6913.0,-8449.0,9471.0,0.0,0.0,0.0,0.0,0.0,0.0,0
76f897717d325b35,1551765583461,401,-6913.0,-8449.0,9471.0,0.0,0.0,0.0,0.0,0.0,0.0,0
76f897717d325b35,1551765583521,402,-6913.0,-8449.0,9471.0,0.0,0.0,0.0,0.0,0.0,0.0,0
76f897717d325b35,1551765583611,403,-6913.0,-8449.0,9471.0,0.0,0.0,0.0,0.0,0.0,0.0,0
76f897717d325b35,1551765583671,404,-6913.0,-8449.0,9471.0,0.0,0.0,0.0,0.0,0.0,0.0,0
76f897717d325b35,1551765583731,405,-6913.0,-8449.0,9471.0,0.0,0.0,0.0,0.0,0.0,0.0,0
76f897717d325b35,1551765583791,406,-6913.0,-8449.0,9471.0,0.0,0.0,0.0,0.0,0.0,0.0,0
76f897717d325b35,1551765583940,407,-6913.0,-8449.0,9471.0,0.0,0.0,0.0,0.0,0.0,0.0,0
76f897717d325b35,1551765583942,408,-6913.0,-8449.0,9471.0,0.0,0.0,0.0,0.0,0.0,0.0,0
76f897717d325b35,1551765584001,409,-6913.0,-8449.0,9471.0,0.0,0.0,0.0,0.0,0.0,0.0,0
76f897717d325b35,1551765584061,410,-6913.0,-8449.0,9471.0,0.0,0.0,0.0,0.0,0.0,0.0,0
76f897717d325b35,1551765584151,411,-6913.0,-8449.0,9471.0,0.0,0.0,0.0,0.0,0.0,0.0,0
76f897717d325b35,1551765584181,412,-6913.0,-8449.0,9471.0,0.0,0.0,0.0,0.0,0.0,0.0,0
76f897717d325b35,1551765584301,413,-6913.0,-8449.0,9471.0,0.0,0.0,0.0,0.0,0.0,0.0,0
76f897717d325b35,1551765584331,414,-6913.0,-8449.0,9471.0,0.0,0.0,0.0,0.0,0.0,0.0,0
76f897717d325b35,1551765584421,415,-6913.0,-8449.0,9471.0,0.0,0.0,0.0,0.0,0.0,0.0,0
76f897717d325b35,1551765584451,416,-6913.0,-8449.0,9471.0,0.0,0.0,0.0,0.0,0.0,0.0,0
76f897717d325b35,1551765584511,417,-6913.0,-8449.0,9471.0,0.0,0.0,0.0,0.0,0.0,0.0,0
76f897717d325b35,1551765584601,418,-6913.0,-8449.0,9471.0,0.0,0.0,0.0,0.0,0.0,0.0,0
76f897717d325b35,1551765584661,419,-6913.0,-8449.0,9471.0,0.0,0.0,0.0,0.0,0.0,0.0,0
76f897717d325b35,1551765584721,420,-6913.0,-8449.0,9471.0,0.0,0.0,0.0,0.0,0.0,0.0,0
76f897717d325b35,1551765584781,421,-6913.0,-8449.0,9471.0,0.0,0.0,0.0,0.0,0.0,0.0,0
76f897717d325b35,1551765584871,422,-6913.0,-8449.0,9471.0,0.0,0.0,0.0,0.0,0.0,0.0,0
76f897717d325b35,1551765584931,423,-6913.0,-8449.0,9471.0,0.0,0.0,0.0,0.0,0.0,0.0,0
76f897717d325b35,1551765584991,424,-6913.0,-8449.0,9471.0,0.0,0.0,0.0,0.0,0.0,0.0,0
76f897717d325b35,1551765585051,425,-6913.0,-8449.0,9471.0,0.0,0.0,0.0,0.0,0.0,0.0,0
76f897717d325b35,1551765585111,426,-6913.0,-8449.0,9471.0,0.0,0.0,0.0,0.0,0.0,0.0,0
76f897717d325b35,1551765585171,427,-6913.0,-8449.0,9471.0,0.0,0.0,0.0,0.0,0.0,0.0,0
76f897717d325b35,1551765585261,428,-6913.0,-8449.0,9471.0,0.0,0.0,0.0,0.0,0.0,0.0,0
76f897717d325b35,1551765585321,429,-6913.0,-8449.0,9471.0,0.0,0.0,0.0,0.0,0.0,0.0,0
76f897717d325b35,1551765585381,430,-6913.0,-8449.0,9471.0,0.0,0.0,0.0,0.0,0.0,0.0,0
76f897717d325b35,1551765585441,431,-6913.0,-8449.0,9471.0,0.0,0.0,0.0,0.0,0.0,0.0,0
76f897717d325b35,1551765585501,432,-6913.0,-8449.0,9471.0,0.0,0.0,0.0,0.0,0.0,0.0,0
76f897717d325b35,1551765585621,433,-6913.0,-8449.0,9471.0,0.0,0.0,0.0,0.0,0.0,0.0,0
76f897717d325b35,1551765585651,434,-6913.0,-8449.0,9471.0,0.0,0.0,0.0,0.0,0.0,0.0,0
76f897717d325b35,1551765585711,435,-6913.0,-8449.0,9471.0,0.0,0.0,0.0,0.0,0.0,0.0,0
76f897717d325b35,1551765585771,436,-6913.0,-8449.0,9471.0,0.0,0.0,0.0,0.0,0.0,0.0,0
76f897717d325b35,1551765585831,437,-6913.0,-8449.0,9471.0,0.0,0.0,0.0,0.0,0.0,0.0,0
76f897717d325b35,1551765585921,438,-6913.0,-8449.0,9471.0,0.0,0.0,0.0,0.0,0.0,0.0,0
76f897717d325b35,1551765585981,439,-6913.0,-8449.0,9471.0,0.0,0.0,0.0,0.0,0.0,0.0,0
76f897717d325b35,1551765586041,440,-6913.0,-8449.0,9471.0,0.0,0.0,0.0,0.0,0.0,0.0,0
76f897717d325b35,1551765586101,441,-6913.0,-8449.0,9471.0,0.0,0.0,0.0,0.0,0.0,0.0,0
76f897717d325b35,1551765586161,442,-6913.0,-8449.0,9471.0,0.0,0.0,0.0,0.0,0.0,0.0,0
76f897717d325b35,1551765586251,443,-6913.0,-8449.0,9471.0,0.0,0.0,0.0,0.0,0.0,0.0,0
76f897717d325b35,1551765586311,444,-6913.0,-8449.0,9471.0,0.0,0.0,0.0,0.0,0.0,0.0,0
76f897717d325b35,1551765586371,445,-6913.0,-8449.0,9471.0,0.0,0.0,0.0,0.0,0.0,0.0,0
76f897717d325b35,1551765586430,446,-6913.0,-8449.0,9471.0,0.0,0.0,0.0,0.0,0.0,0.0,0
76f897717d325b35,1551765586491,447,-6913.0,-8449.0,9471.0,0.0,0.0,0.0,0.0,0.0,0.0,0
76f897717d325b35,1551765586581,448,-6913.0,-8449.0,9471.0,0.0,0.0,0.0,0.0,0.0,0.0,0
76f897717d325b35,1551765586641,449,-6913.0,-8449.0,9471.0,0.0,0.0,0.0,0.0,0.0,0.0,0
76f897717d325b35,1551765586701,450,-6913.0,-8449.0,9471.0,0.0,0.0,0.0,0.0,0.0,0.0,0
76f897717d325b35,1551765586761,451,-6913.0,-8449.0,9471.0,0.0,0.0,0.0,0.0,0.0,0.0,0
76f897717d325b35,1551765586821,452,-6913.0,-8449.0,9471.0,0.0,0.0,0.0,0.0,0.0,0.0,0
76f897717d325b35,1551765586911,453,-6913.0,-8449.0,9471.0,0.0,0.0,0.0,0.0,0.0,0.0,0
76f897717d325b35,1551765586971,454,-6913.0,-8449.0,9471.0,0.0,0.0,0.0,0.0,0.0,0.0,0
76f897717d325b35,1551765587061,455,-6913.0,-8449.0,9471.0,0.0,0.0,0.0,0.0,0.0,0.0,0
76f897717d325b35,1551765587091,456,-6913.0,-8449.0,9471.0,0.0,0.0,0.0,0.0,0.0,0.0,0
76f897717d325b35,1551765587151,457,-6913.0,-8449.0,9471.0,0.0,0.0,0.0,0.0,0.0,0.0,0
76f897717d325b35,1551765587241,458,-6913.0,-8449.0,9471.0,0.0,0.0,0.0,0.0,0.0,0.0,0
76f897717d325b35,1551765587301,459,-6913.0,-8449.0,9471.0,0.0,0.0,0.0,0.0,0.0,0.0,0
76f897717d325b35,1551765587361,460,-6913.0,-8449.0,9471.0,0.0,0.0,0.0,0.0,0.0,0.0,0
76f897717d325b35,1551765587421,461,-6913.0,-8449.0,9471.0,0.0,0.0,0.0,0.0,0.0,0.0,0
76f897717d325b35,1551765587481,462,-6913.0,-8449.0,9471.0,0.0,0.0,0.0,0.0,0.0,0.0,0
76f897717d325b35,1551765587601,463,-6913.0,-8449.0,9471.0,0.0,0.0,0.0,0.0,0.0,0.0,0
76f897717d325b35,1551765587631,464,-6913.0,-8449.0,9471.0,0.0,0.0,0.0,0.0,0.0,0.0,0
76f897717d325b35,1551765587691,465,-6913.0,-8449.0,9471.0,0.0,0.0,0.0,0.0,0.0,0.0,0
76f897717d325b35,1551765587751,466,-6913.0,-8449.0,9471.0,0.0,0.0,0.0,0.0,0.0,0.0,0
76f897717d325b35,1551765587811,467,-6913.0,-8449.0,9471.0,0.0,0.0,0.0,0.0,0.0,0.0,0
76f897717d325b35,1551765587901,468,-6913.0,-8449.0,9471.0,0.0,0.0,0.0,0.0,0.0,0.0,0
76f897717d325b35,1551765587961,469,-6913.0,-8449.0,9471.0,0.0,0.0,0.0,0.0,0.0,0.0,0
76f897717d325b35,1551765588021,470,-6913.0,-8449.0,9471.0,0.0,0.0,0.0,0.0,0.0,0.0,0
76f897717d325b35,1551765588081,471,-6913.0,-8449.0,9471.0,0.0,0.0,0.0,0.0,0.0,0.0,0
76f897717d325b35,1551765588141,472,-6913.0,-8449.0,9471.0,0.0,0.0,0.0,0.0,0.0,0.0,0
76f897717d325b35,1551765588231,473,-6913.0,-8449.0,9471.0,0.0,0.0,0.0,0.0,0.0,0.0,0
76f897717d325b35,1551765588291,474,-6913.0,-8449.0,9471.0,0.0,0.0,0.0,0.0,0.0,0.0,0
76f897717d325b35,1551765588351,475,-6913.0,-8449.0,9471.0,0.0,0.0,0.0,0.0,0.0,0.0,0
76f897717d325b35,1551765588411,476,-6913.0,-8449.0,9471.0,0.0,0.0,0.0,0.0,0.0,0.0,0
76f897717d325b35,1551765588471,477,-6913.0,-8449.0,9471.0,0.0,0.0,0.0,0.0,0.0,0.0,0
76f897717d325b35,1551765588561,478,-6913.0,-8449.0,9471.0,0.0,0.0,0.0,0.0,0.0,0.0,0
76f897717d325b35,1551765588621,479,-6913.0,-8449.0,9471.0,0.0,0.0,0.0,0.0,0.0,0.0,0
76f897717d325b35,1551765588681,480,-6913.0,-8449.0,9471.0,0.0,0.0,0.0,0.0,0.0,0.0,0
76f897717d325b35,1551765588741,481,-6913.0,-8449.0,9471.0,0.0,0.0,0.0,0.0,0.0,0.0,0
76f897717d325b35,1551765588801,482,-6913.0,-8449.0,9471.0,0.0,0.0,0.0,0.0,0.0,0.0,0
76f897717d325b35,1551765588891,483,-6913.0,-8449.0,9471.0,0.0,0.0,0.0,0.0,0.0,0.0,0
76f897717d325b35,1551765588951,484,-6913.0,-8449.0,9471.0,0.0,0.0,0.0,0.0,0.0,0.0,0
76f897717d325b35,1551765589011,485,-6913.0,-8449.0,9471.0,0.0,0.0,0.0,0.0,0.0,0.0,0
76f897717d325b35,1551765589101,486,-6913.0,-8449.0,9471.0,0.0,0.0,0.0,0.0,0.0,0.0,0
76f897717d325b35,1551765589131,487,-6913.0,-8449.0,9471.0,0.0,0.0,0.0,0.0,0.0,0.0,0
76f897717d325b35,1551765589221,488,-6913.0,-8449.0,9471.0,0.0,0.0,0.0,0.0,0.0,0.0,0
76f897717d325b35,1551765589281,489,-6913.0,-8449.0,9471.0,0.0,0.0,0.0,0.0,0.0,0.0,0
76f897717d325b35,1551765589341,490,-6913.0,-8449.0,9471.0,0.0,0.0,0.0,0.0,0.0,0.0,0
76f897717d325b35,1551765589401,491,-6913.0,-8449.0,9471.0,0.0,0.0,0.0,0.0,0.0,0.0,0
76f897717d325b35,1551765589461,492,-6913.0,-8449.0,9471.0,0.0,0.0,0.0,0.0,0.0,0.0,0
76f897717d325b35,1551765589551,493,-6913.0,-8449.0,9471.0,0.0,0.0,0.0,0.0,0.0,0.0,0
76f897717d325b35,1551765589611,494,-6913.0,-8449.0,9471.0,0.0,0.0,0.0,0.0,0.0,0.0,0
76f897717d325b35,1551765589671,495,-6913.0,-8449.0,9471.0,0.0,0.0,0.0,0.0,0.0,0.0,0
76f897717d325b35,1551765589731,496,-6913.0,-8449.0,9471.0,0.0,0.0,0.0,0.0,0.0,0.0,0
76f897717d325b35,1551765589821,497,-6913.0,-8449.0,9471.0,0.0,0.0,0.0,0.0,0.0,0.0,0
76f897717d325b35,1551765589881,498,-6913.0,-8449.0,9471.0,0.0,0.0,0.0,0.0,0.0,0.0,0
76f897717d325b35,1551765589941,499,-6913.0,-8449.0,9471.0,0.0,0.0,0.0,0.0,0.0,0.0,0
76f897717d325b35,1551765590001,500,-6913.0,-8449.0,9471.0,0.0,0.0,0.0,0.0,0.0,0.0,0
76f897717d325b35,1551765590061,501,-6913.0,-8449.0,9471.0,0.0,0.0,0.0,0.0,0.0,0.0,0
76f897717d325b35,1551765590121,502,-6913.0,-8449.0,9471.0,0.0,0.0,0.0,0.0,0.0,0.0,0
76f897717d325b35,1551765590211,503,-6913.0,-8449.0,9471.0,0.0,0.0,0.0,0.0,0.0,0.0,0
76f897717d325b35,1551765590271,504,-6657.0,-8449.0,9471.0,0.0,0.0,0.0,0.0,0.0,0.0,0
76f897717d325b35,1551765590331,505,-6913.0,-8449.0,9471.0,0.0,0.0,0.0,0.0,0.0,0.0,0
76f897717d325b35,1551765590391,506,-6913.0,-8449.0,9471.0,0.0,0.0,0.0,0.0,0.0,0.0,0
76f897717d325b35,1551765590451,507,-6913.0,-8449.0,9471.0,0.0,0.0,0.0,0.0,0.0,0.0,0
76f897717d325b35,1551765590541,508,-6913.0,-8449.0,9471.0,0.0,0.0,0.0,0.0,0.0,0.0,0
76f897717d325b35,1551765590601,509,-6913.0,-8449.0,9471.0,0.0,0.0,0.0,0.0,0.0,0.0,0
76f897717d325b35,1551765590661,510,-6913.0,-8449.0,9471.0,0.0,0.0,0.0,0.0,0.0,0.0,0
76f897717d325b35,1551765590721,511,-6913.0,-8449.0,9471.0,0.0,0.0,0.0,0.0,0.0,0.0,0
76f897717d325b35,1551765590781,512,-6913.0,-8449.0,9471.0,0.0,0.0,0.0,0.0,0.0,0.0,0
76f897717d325b35,1551765590871,513,-6913.0,-8449.0,9471.0,0.0,0.0,0.0,0.0,0.0,0.0,0
76f897717d325b35,1551765590931,514,-6913.0,-8449.0,9471.0,0.0,0.0,0.0,0.0,0.0,0.0,0
76f897717d325b35,1551765590991,515,-6913.0,-8449.0,9471.0,0.0,0.0,0.0,0.0,0.0,0.0,0
76f897717d325b35,1551765591051,516,-6913.0,-8449.0,9471.0,0.0,0.0,0.0,0.0,0.0,0.0,0
76f897717d325b35,1551765591111,517,-6913.0,-8449.0,9471.0,0.0,0.0,0.0,0.0,0.0,0.0,0
76f897717d325b35,1551765591201,518,-6913.0,-8449.0,9471.0,0.0,0.0,0.0,0.0,0.0,0.0,0
76f897717d325b35,1551765591261,519,-6913.0,-8449.0,9471.0,0.0,0.0,0.0,0.0,0.0,0.0,0
76f897717d325b35,1551765591321,520,-6913.0,-8449.0,9471.0,0.0,0.0,0.0,0.0,0.0,0.0,0
76f897717d325b35,1551765591381,521,-6913.0,-8449.0,9471.0,0.0,0.0,0.0,0.0,0.0,0.0,0
76f897717d325b35,1551765591471,522,-6913.0,-8449.0,9471.0,0.0,0.0,0.0,0.0,0.0,0.0,0
76f897717d325b35,1551765591590,523,-6913.0,-8449.0,9471.0,0.0,0.0,0.0,0.0,0.0,0.0,0
76f897717d325b35,1551765591591,524,-6913.0,-8449.0,9471.0,0.0,0.0,0.0,0.0,0.0,0.0,0
76f897717d325b35,1551765592101,525,-6913.0,-8449.0,9471.0,0.0,0.0,0.0,0.0,0.0,0.0,0
76f897717d325b35,1551765592102,526,-6913.0,-8449.0,9471.0,0.0,0.0,0.0,0.0,0.0,0.0,0
76f897717d325b35,1551765592130,527,-6913.0,-8449.0,9471.0,0.0,0.0,0.0,0.0,0.0,0.0,0
76f897717d325b35,1551765592132,528,-6913.0,-8449.0,9471.0,0.0,0.0,0.0,0.0,0.0,0.0,0
76f897717d325b35,1551765592133,529,-6913.0,-8449.0,9471.0,0.0,0.0,0.0,0.0,0.0,0.0,0
76f897717d325b35,1551765592134,530,-6913.0,-8449.0,9471.0,0.0,0.0,0.0,0.0,0.0,0.0,0
76f897717d325b35,1551765592371,531,-6913.0,-8449.0,9471.0,0.0,0.0,0.0,0.0,0.0,0.0,0
76f897717d325b35,1551765592372,532,-6913.0,-8449.0,9471.0,0.0,0.0,0.0,0.0,0.0,0.0,0
76f897717d325b35,1551765592373,533,-6913.0,-8449.0,9471.0,0.0,0.0,0.0,0.0,0.0,0.0,0
76f897717d325b35,1551765592850,534,-6913.0,-8449.0,9471.0,0.0,0.0,0.0,0.0,0.0,0.0,0
76f897717d325b35,1551765592852,535,-6913.0,-8449.0,9471.0,0.0,0.0,0.0,0.0,0.0,0.0,0
76f897717d325b35,1551765592853,536,-6913.0,-8449.0,9471.0,0.0,0.0,0.0,0.0,0.0,0.0,0
76f897717d325b35,1551765592855,537,-6913.0,-8449.0,9471.0,0.0,0.0,0.0,0.0,0.0,0.0,0
76f897717d325b35,1551765592856,538,-6913.0,-8449.0,9471.0,0.0,0.0,0.0,0.0,0.0,0.0,0
76f897717d325b35,1551765592857,539,-6913.0,-8449.0,9471.0,0.0,0.0,0.0,0.0,0.0,0.0,0
76f897717d325b35,1551765592911,540,-6913.0,-8449.0,9471.0,0.0,0.0,0.0,0.0,0.0,0.0,0
76f897717d325b35,1551765593030,541,-6913.0,-8449.0,9471.0,0.0,0.0,0.0,0.0,0.0,0.0,0
76f897717d325b35,1551765593031,542,-6913.0,-8449.0,9471.0,0.0,0.0,0.0,0.0,0.0,0.0,0
76f897717d325b35,1551765593091,543,-6913.0,-8449.0,9471.0,0.0,0.0,0.0,0.0,0.0,0.0,0
76f897717d325b35,1551765593181,544,-6913.0,-8449.0,9471.0,0.0,0.0,0.0,0.0,0.0,0.0,0
76f897717d325b35,1551765593241,545,-6913.0,-8449.0,9471.0,0.0,0.0,0.0,0.0,0.0,0.0,0
76f897717d325b35,1551765593301,546,-6913.0,-8449.0,9471.0,0.0,0.0,0.0,0.0,0.0,0.0,0
76f897717d325b35,1551765593361,547,-6913.0,-8449.0,9471.0,0.0,0.0,0.0,0.0,0.0,0.0,0
76f897717d325b35,1551765593421,548,-6913.0,-8449.0,9471.0,0.0,0.0,0.0,0.0,0.0,0.0,0
76f897717d325b35,1551765593511,549,-6913.0,-8449.0,9471.0,0.0,0.0,0.0,0.0,0.0,0.0,0
76f897717d325b35,1551765593571,550,-6913.0,-8449.0,9471.0,0.0,0.0,0.0,0.0,0.0,0.0,0
76f897717d325b35,1551765593631,551,-6913.0,-8449.0,9471.0,0.0,0.0,0.0,0.0,0.0,0.0,0
76f897717d325b35,1551765593721,552,-6913.0,-8449.0,9471.0,0.0,0.0,0.0,0.0,0.0,0.0,0
76f897717d325b35,1551765593751,553,-6913.0,-8449.0,9471.0,0.0,0.0,0.0,0.0,0.0,0.0,0
76f897717d325b35,1551765593841,554,-6913.0,-8449.0,9471.0,0.0,0.0,0.0,0.0,0.0,0.0,0
76f897717d325b35,1551765593901,555,-6913.0,-8449.0,9471.0,0.0,0.0,0.0,0.0,0.0,0.0,0
76f897717d325b35,1551765593961,556,-6913.0,-8449.0,9471.0,0.0,0.0,0.0,0.0,0.0,0.0,0
76f897717d325b35,1551765594021,557,-6913.0,-8449.0,9471.0,0.0,0.0,0.0,0.0,0.0,0.0,0
76f897717d325b35,1551765594081,558,-6913.0,-8449.0,9471.0,0.0,0.0,0.0,0.0,0.0,0.0,0
76f897717d325b35,1551765594171,559,-6913.0,-8449.0,9471.0,0.0,0.0,0.0,0.0,0.0,0.0,0
76f897717d325b35,1551765594261,560,-6913.0,-8449.0,9471.0,0.0,0.0,0.0,0.0,0.0,0.0,0
76f897717d325b35,1551765594291,561,-6913.0,-8449.0,9471.0,0.0,0.0,0.0,0.0,0.0,0.0,0
76f897717d325b35,1551765594351,562,-6913.0,-8449.0,9471.0,0.0,0.0,0.0,0.0,0.0,0.0,0
76f897717d325b35,1551765594411,563,-6913.0,-8449.0,9471.0,0.0,0.0,0.0,0.0,0.0,0.0,0
76f897717d325b35,1551765594501,564,-6913.0,-8449.0,9471.0,0.0,0.0,0.0,0.0,0.0,0.0,0
76f897717d325b35,1551765594561,565,-6913.0,-8449.0,9471.0,0.0,0.0,0.0,0.0,0.0,0.0,0
76f897717d325b35,1551765594622,566,-6913.0,-8449.0,9471.0,0.0,0.0,0.0,0.0,0.0,0.0,0
76f897717d325b35,1551765594681,567,-6913.0,-8449.0,9471.0,0.0,0.0,0.0,0.0,0.0,0.0,0
76f897717d325b35,1551765594741,568,-6913.0,-8449.0,9471.0,0.0,0.0,0.0,0.0,0.0,0.0,0
76f897717d325b35,1551765594830,569,-6913.0,-8449.0,9471.0,0.0,0.0,0.0,0.0,0.0,0.0,0
76f897717d325b35,1551765594891,570,-6913.0,-8449.0,9471.0,0.0,0.0,0.0,0.0,0.0,0.0,0
76f897717d325b35,1551765594951,571,-6913.0,-8449.0,9471.0,0.0,0.0,0.0,0.0,0.0,0.0,0
76f897717d325b35,1551765595011,572,-6913.0,-8449.0,9471.0,0.0,0.0,0.0,0.0,0.0,0.0,0
76f897717d325b35,1551765595071,573,-6913.0,-8449.0,9471.0,0.0,0.0,0.0,0.0,0.0,0.0,0
76f897717d325b35,1551765595161,574,-6913.0,-8449.0,9471.0,0.0,0.0,0.0,0.0,0.0,0.0,0
76f897717d325b35,1551765595221,575,-6913.0,-8449.0,9471.0,0.0,0.0,0.0,0.0,0.0,0.0,0
76f897717d325b35,1551765595281,576,-6913.0,-8449.0,9471.0,0.0,0.0,0.0,0.0,0.0,0.0,0
76f897717d325b35,1551765595371,577,-6913.0,-8449.0,9471.0,0.0,0.0,0.0,0.0,0.0,0.0,0
76f897717d325b35,1551765595401,578,-6913.0,-8449.0,9471.0,0.0,0.0,0.0,0.0,0.0,0.0,0
76f897717d325b35,1551765595491,579,-6913.0,-8449.0,9471.0,0.0,0.0,0.0,0.0,0.0,0.0,0
76f897717d325b35,1551765595551,580,-6913.0,-8449.0,9471.0,0.0,0.0,0.0,0.0,0.0,0.0,0
76f897717d325b35,1551765595611,581,-6913.0,-8449.0,9471.0,0.0,0.0,0.0,0.0,0.0,0.0,0
76f897717d325b35,1551765595671,582,-6913.0,-8449.0,9471.0,0.0,0.0,0.0,0.0,0.0,0.0,0
76f897717d325b35,1551765595731,583,-6913.0,-8449.0,9471.0,0.0,0.0,0.0,0.0,0.0,0.0,0
76f897717d325b35,1551765595821,584,-6913.0,-8449.0,9471.0,0.0,0.0,0.0,0.0,0.0,0.0,0
76f897717d325b35,1551765595881,585,-6913.0,-8449.0,9471.0,0.0,0.0,0.0,0.0,0.0,0.0,0
76f897717d325b35,1551765595971,586,-6913.0,-8449.0,9471.0,0.0,0.0,0.0,0.0,0.0,0.0,0
76f897717d325b35,1551765596001,587,-6913.0,-8449.0,9471.0,0.0,0.0,0.0,0.0,0.0,0.0,0
76f897717d325b35,1551765596061,588,-6913.0,-8449.0,9471.0,0.0,0.0,0.0,0.0,0.0,0.0,0
76f897717d325b35,1551765596151,589,-6913.0,-8449.0,9471.0,0.0,0.0,0.0,0.0,0.0,0.0,0
76f897717d325b35,1551765596211,590,-6913.0,-8449.0,9471.0,0.0,0.0,0.0,0.0,0.0,0.0,0
76f897717d325b35,1551765596271,591,-6913.0,-8449.0,9471.0,0.0,0.0,0.0,0.0,0.0,0.0,0
76f897717d325b35,1551765596331,592,-6913.0,-8449.0,9471.0,0.0,0.0,0.0,0.0,0.0,0.0,0
76f897717d325b35,1551765596391,593,-6913.0,-8449.0,9471.0,0.0,0.0,0.0,0.0,0.0,0.0,0
76f897717d325b35,1551765596481,594,-6913.0,-8449.0,9471.0,0.0,0.0,0.0,0.0,0.0,0.0,0
76f897717d325b35,1551765596541,595,-6913.0,-8449.0,9471.0,0.0,0.0,0.0,0.0,0.0,0.0,0
76f897717d325b35,1551765596601,596,-6913.0,-8449.0,9471.0,0.0,0.0,0.0,0.0,0.0,0.0,0
76f897717d325b35,1551765596691,597,-6913.0,-8449.0,9471.0,0.0,0.0,0.0,0.0,0.0,0.0,0
76f897717d325b35,1551765596721,598,-6913.0,-8449.0,9471.0,0.0,0.0,0.0,0.0,0.0,0.0,0
76f897717d325b35,1551765596811,599,-6913.0,-8449.0,9471.0,0.0,0.0,0.0,0.0,0.0,0.0,0
76f897717d325b35,1551765596871,600,-6913.0,-8449.0,9471.0,0.0,0.0,0.0,0.0,0.0,0.0,0
76f897717d325b35,1551765596931,601,-6913.0,-8449.0,9471.0,0.0,0.0,0.0,0.0,0.0,0.0,0
76f897717d325b35,1551765596991,602,-6913.0,-8449.0,9471.0,0.0,0.0,0.0,0.0,0.0,0.0,0
76f897717d325b35,1551765597051,603,-6913.0,-8449.0,9471.0,0.0,0.0,0.0,0.0,0.0,0.0,0
76f897717d325b35,1551765597141,604,-6913.0,-8449.0,9471.0,0.0,0.0,0.0,0.0,0.0,0.0,0
76f897717d325b35,1551765597201,605,-6913.0,-8449.0,9471.0,0.0,0.0,0.0,0.0,0.0,0.0,0
76f897717d325b35,1551765597261,606,-6913.0,-8449.0,9471.0,0.0,0.0,0.0,0.0,0.0,0.0,0
76f897717d325b35,1551765597321,607,-6913.0,-8449.0,9471.0,0.0,0.0,0.0,0.0,0.0,0.0,0
76f897717d325b35,1551765597381,608,-6913.0,-8449.0,9471.0,0.0,0.0,0.0,0.0,0.0,0.0,0
76f897717d325b35,1551765597471,609,-6913.0,-8449.0,9471.0,0.0,0.0,0.0,0.0,0.0,0.0,0
76f897717d325b35,1551765597531,610,-6913.0,-8449.0,9471.0,0.0,0.0,0.0,0.0,0.0,0.0,0
76f897717d325b35,1551765597591,611,-6913.0,-8449.0,9471.0,0.0,0.0,0.0,0.0,0.0,0.0,0
76f897717d325b35,1551765597651,612,-6913.0,-8449.0,9471.0,0.0,0.0,0.0,0.0,0.0,0.0,0
76f897717d325b35,1551765597711,613,-6913.0,-8449.0,9471.0,0.0,0.0,0.0,0.0,0.0,0.0,0
76f897717d325b35,1551765597801,614,-6913.0,-8449.0,9471.0,0.0,0.0,0.0,0.0,0.0,0.0,0
76f897717d325b35,1551765597861,615,-6913.0,-8449.0,9471.0,0.0,0.0,0.0,0.0,0.0,0.0,0
76f897717d325b35,1551765597921,616,-6913.0,-8449.0,9471.0,0.0,0.0,0.0,0.0,0.0,0.0,0
76f897717d325b35,1551765597981,617,-6913.0,-8449.0,9471.0,0.0,0.0,0.0,0.0,0.0,0.0,0
76f897717d325b35,1551765598041,618,-6913.0,-8449.0,9471.0,0.0,0.0,0.0,0.0,0.0,0.0,0
76f897717d325b35,1551765598131,619,-6913.0,-8449.0,9471.0,0.0,0.0,0.0,0.0,0.0,0.0,0
76f897717d325b35,1551765598191,620,-6913.0,-8449.0,9471.0,0.0,0.0,0.0,0.0,0.0,0.0,0
76f897717d325b35,1551765598251,621,-6913.0,-8449.0,9471.0,0.0,0.0,0.0,0.0,0.0,0.0,0
76f897717d325b35,1551765598341,622,-6913.0,-8449.0,9471.0,0.0,0.0,0.0,0.0,0.0,0.0,0
76f897717d325b35,1551765598371,623,-6913.0,-8449.0,9471.0,0.0,0.0,0.0,0.0,0.0,0.0,0
76f897717d325b35,1551765598461,624,-6913.0,-8449.0,9471.0,0.0,0.0,0.0,0.0,0.0,0.0,0
76f897717d325b35,1551765598521,625,-6913.0,-8449.0,9471.0,0.0,0.0,0.0,0.0,0.0,0.0,0
76f897717d325b35,1551765598581,626,-6913.0,-8449.0,9471.0,0.0,0.0,0.0,0.0,0.0,0.0,0
76f897717d325b35,1551765598641,627,-6913.0,-8449.0,9471.0,0.0,0.0,0.0,0.0,0.0,0.0,0
76f897717d325b35,1551765598701,628,-6913.0,-8449.0,9471.0,0.0,0.0,0.0,0.0,0.0,0.0,0
76f897717d325b35,1551765598821,629,-6913.0,-8449.0,9471.0,0.0,0.0,0.0,0.0,0.0,0.0,0
76f897717d325b35,1551765598851,630,-6913.0,-8449.0,9471.0,0.0,0.0,0.0,0.0,0.0,0.0,0
76f897717d325b35,1551765598911,631,-6913.0,-8449.0,9471.0,0.0,0.0,0.0,0.0,0.0,0.0,0
76f897717d325b35,1551765598971,632,-6913.0,-8449.0,9471.0,0.0,0.0,0.0,0.0,0.0,0.0,0
76f897717d325b35,1551765599061,633,-6913.0,-8449.0,9471.0,0.0,0.0,0.0,0.0,0.0,0.0,0
76f897717d325b35,1551765599121,634,-6913.0,-8449.0,9471.0,0.0,0.0,0.0,0.0,0.0,0.0,0
76f897717d325b35,1551765599181,635,-6913.0,-8449.0,9471.0,0.0,0.0,0.0,0.0,0.0,0.0,0
76f897717d325b35,1551765599241,636,-6913.0,-8449.0,9471.0,0.0,0.0,0.0,0.0,0.0,0.0,0
76f897717d325b35,1551765599301,637,-6913.0,-8449.0,9471.0,0.0,0.0,0.0,0.0,0.0,0.0,0
76f897717d325b35,1551765599361,638,-6913.0,-8449.0,9471.0,0.0,0.0,0.0,0.0,0.0,0.0,0
76f897717d325b35,1551765599451,639,-6913.0,-8449.0,9471.0,0.0,0.0,0.0,0.0,0.0,0.0,0
76f897717d325b35,1551765599511,640,-6913.0,-8449.0,9471.0,0.0,0.0,0.0,0.0,0.0,0.0,0
76f897717d325b35,1551765599571,641,-6913.0,-8449.0,9215.0,0.0,0.0,0.0,0.0,0.0,0.0,0
76f897717d325b35,1551765599661,642,-6913.0,-8449.0,9471.0,0.0,0.0,0.0,0.0,0.0,0.0,0
76f897717d325b35,1551765599691,643,-6913.0,-8449.0,9471.0,0.0,0.0,0.0,0.0,0.0,0.0,0
76f897717d325b35,1551765599781,644,-6913.0,-8449.0,9215.0,0.0,0.0,0.0,0.0,0.0,0.0,0
76f897717d325b35,1551765599841,645,-6913.0,-8193.0,9471.0,0.0,0.0,0.0,0.0,0.0,0.0,0
76f897717d325b35,1551765599901,646,-6913.0,-8449.0,9471.0,0.0,0.0,0.0,0.0,0.0,0.0,0
76f897717d325b35,1551765599961,647,-6913.0,-8449.0,9215.0,0.0,0.0,0.0,0.0,0.0,0.0,0
76f897717d325b35,1551765600021,648,-6913.0,-8449.0,9215.0,0.0,0.0,0.0,0.0,0.0,0.0,0
76f897717d325b35,1551765600111,649,-6913.0,-8449.0,9215.0,0.0,0.0,0.0,0.0,0.0,0.0,0
76f897717d325b35,1551765600171,650,-6913.0,-8449.0,9471.0,0.0,0.0,0.0,0.0,0.0,0.0,0
76f897717d325b35,1551765600231,651,-6913.0,-8449.0,9215.0,0.0,0.0,0.0,0.0,0.0,0.0,0
76f897717d325b35,1551765600291,652,-6657.0,-8705.0,9215.0,0.0,0.0,0.0,0.0,0.0,0.0,0
76f897717d325b35,1551765600381,653,-6913.0,-8193.0,9471.0,0.0,0.0,0.0,0.0,0.0,0.0,0
76f897717d325b35,1551765600441,654,-7425.0,-8193.0,9215.0,0.0,0.0,0.0,0.0,0.0,0.0,0
76f897717d325b35,1551765600501,655,-7425.0,-8193.0,8959.0,0.0,0.0,0.0,0.0,0.0,0.0,0
76f897717d325b35,1551765600561,656,-7169.0,-8193.0,8959.0,0.0,0.0,0.0,0.0,0.0,0.0,0
76f897717d325b35,1551765600710,657,-7425.0,-8193.0,8959.0,0.0,0.0,0.0,0.0,0.0,0.0,0
76f897717d325b35,1551765600711,658,-7169.0,-8193.0,8959.0,0.0,0.0,0.0,0.0,0.0,0.0,0
76f897717d325b35,1551765600801,659,-7169.0,-8193.0,8959.0,0.0,0.0,0.0,0.0,0.0,0.0,0
76f897717d325b35,1551765600831,660,-7425.0,-8193.0,8703.0,0.0,0.0,0.0,0.0,0.0,0.0,0
76f897717d325b35,1551765600891,661,-7169.0,-8193.0,8959.0,0.0,0.0,0.0,0.0,0.0,0.0,0
76f897717d325b35,1551765600951,662,-6657.0,-8449.0,8959.0,0.0,0.0,0.0,0.0,0.0,0.0,0
76f897717d325b35,1551765601011,663,-6913.0,-8193.0,8959.0,0.0,0.0,0.0,0.0,0.0,0.0,0
76f897717d325b35,1551765601131,664,-6913.0,-8449.0,8959.0,0.0,0.0,0.0,0.0,0.0,0.0,0
76f897717d325b35,1551765601191,665,-7169.0,-8193.0,8959.0,0.0,0.0,0.0,0.0,0.0,0.0,0
76f897717d325b35,1551765601221,666,-6913.0,-8449.0,8959.0,0.0,0.0,0.0,0.0,0.0,0.0,0
76f897717d325b35,1551765601311,667,-6913.0,-8449.0,8959.0,0.0,0.0,0.0,0.0,0.0,0.0,0
76f897717d325b35,1551765601341,668,-7169.0,-8449.0,8959.0,0.0,0.0,0.0,0.0,0.0,0.0,0
76f897717d325b35,1551765601430,669,-7425.0,-7937.0,8703.0,0.0,0.0,0.0,0.0,0.0,0.0,0
76f897717d325b35,1551765601730,670,-7425.0,-8193.0,8703.0,0.0,0.0,0.0,0.0,0.0,0.0,0
76f897717d325b35,1551765601760,671,-7169.0,-7937.0,8703.0,0.0,0.0,0.0,0.0,0.0,0.0,0
76f897717d325b35,1551765601762,672,-7169.0,-8193.0,8703.0,0.0,0.0,0.0,0.0,0.0,0.0,0
76f897717d325b35,1551765601763,673,-6913.0,-8449.0,8703.0,0.0,0.0,0.0,0.0,0.0,0.0,0
76f897717d325b35,1551765601764,674,-7169.0,-8449.0,8703.0,0.0,0.0,0.0,0.0,0.0,0.0,0
76f897717d325b35,1551765601821,675,-7169.0,-8449.0,8703.0,0.0,0.0,0.0,0.0,0.0,0.0,0
76f897717d325b35,1551765601911,676,-6913.0,-8193.0,8703.0,0.0,0.0,0.0,0.0,0.0,0.0,0
76f897717d325b35,1551765602240,677,-7169.0,-8193.0,8959.0,0.0,0.0,0.0,0.0,0.0,0.0,0
76f897717d325b35,1551765602242,678,-6913.0,-8449.0,8959.0,0.0,0.0,0.0,0.0,0.0,0.0,0
76f897717d325b35,1551765602243,679,-7169.0,-8193.0,9215.0,0.0,0.0,0.0,0.0,0.0,0.0,0
76f897717d325b35,1551765602244,680,-7169.0,-8193.0,8959.0,0.0,0.0,0.0,0.0,0.0,0.0,0
76f897717d325b35,1551765602245,681,-7169.0,-8449.0,9215.0,0.0,0.0,0.0,0.0,0.0,0.0,0
76f897717d325b35,1551765602271,682,-7169.0,-8449.0,9471.0,0.0,0.0,0.0,0.0,0.0,0.0,0
76f897717d325b35,1551765602331,683,-6913.0,-8449.0,9471.0,0.0,0.0,0.0,0.0,0.0,0.0,0
76f897717d325b35,1551765602450,684,-6913.0,-8449.0,9215.0,0.0,0.0,0.0,0.0,0.0,0.0,0
76f897717d325b35,1551765602481,685,-7681.0,-8193.0,9215.0,0.0,0.0,0.0,0.0,0.0,0.0,0
76f897717d325b35,1551765602541,686,-7169.0,-8193.0,8959.0,0.0,0.0,0.0,0.0,0.0,0.0,0
76f897717d325b35,1551765602631,687,-6913.0,-8449.0,8959.0,0.0,0.0,0.0,0.0,0.0,0.0,0
76f897717d325b35,1551765602661,688,-6401.0,-8193.0,8703.0,0.0,0.0,0.0,0.0,0.0,0.0,0
76f897717d325b35,1551765602781,689,-7169.0,-8449.0,8447.0,0.0,0.0,0.0,0.0,0.0,0.0,0
76f897717d325b35,1551765602811,690,-6913.0,-8193.0,8447.0,0.0,0.0,0.0,0.0,0.0,0.0,0
76f897717d325b35,1551765602871,691,-7425.0,-8193.0,8447.0,0.0,0.0,0.0,0.0,0.0,0.0,0
76f897717d325b35,1551765602931,692,-7425.0,-7937.0,8447.0,0.0,0.0,0.0,0.0,0.0,0.0,0
76f897717d325b35,1551765602991,693,-6657.0,-8705.0,8703.0,0.0,0.0,0.0,0.0,0.0,0.0,0
76f897717d325b35,1551765603081,694,-6913.0,-8449.0,8447.0,0.0,0.0,0.0,0.0,0.0,0.0,0
76f897717d325b35,1551765603141,695,-6913.0,-7937.0,8447.0,0.0,0.0,0.0,0.0,0.0,0.0,0
76f897717d325b35,1551765603201,696,-6657.0,-8449.0,8447.0,0.0,0.0,0.0,0.0,0.0,0.0,0
76f897717d325b35,1551765603411,697,-6913.0,-8705.0,8191.0,0.0,0.0,0.0,0.0,0.0,0.0,0
76f897717d325b35,1551765603413,698,-7169.0,-8449.0,8447.0,0.0,0.0,0.0,0.0,0.0,0.0,0
76f897717d325b35,1551765603415,699,-7169.0,-8193.0,8703.0,0.0,0.0,0.0,0.0,0.0,0.0,0
76f897717d325b35,1551765603470,700,-6913.0,-8705.0,8959.0,0.0,0.0,0.0,0.0,0.0,0.0,0
76f897717d325b35,1551765603530,701,-6657.0,-8449.0,9471.0,0.0,0.0,0.0,0.0,0.0,0.0,0
76f897717d325b35,1551765603590,702,-6913.0,-8193.0,9215.0,0.0,0.0,0.0,0.0,0.0,0.0,0
76f897717d325b35,1551765603650,703,-7425.0,-8193.0,9215.0,0.0,0.0,0.0,0.0,0.0,0.0,0
76f897717d325b35,1551765603740,704,-7169.0,-8705.0,9215.0,0.0,0.0,0.0,0.0,0.0,0.0,0
76f897717d325b35,1551765603801,705,-6657.0,-8449.0,9215.0,0.0,0.0,0.0,0.0,0.0,0.0,0
76f897717d325b35,1551765603861,706,-6657.0,-8705.0,9215.0,0.0,0.0,0.0,0.0,0.0,0.0,0
76f897717d325b35,1551765603921,707,-6657.0,-8193.0,8959.0,0.0,0.0,0.0,0.0,0.0,0.0,0
76f897717d325b35,1551765603981,708,-7169.0,-8705.0,8959.0,0.0,0.0,0.0,0.0,0.0,0.0,0
76f897717d325b35,1551765604160,709,-6657.0,-8193.0,8447.0,0.0,0.0,0.0,0.0,0.0,0.0,0
76f897717d325b35,1551765604162,710,-6657.0,-8193.0,8703.0,0.0,0.0,0.0,0.0,0.0,0.0,0
76f897717d325b35,1551765604370,711,-6401.0,-8193.0,7935.0,0.0,0.0,0.0,0.0,0.0,0.0,0
76f897717d325b35,1551765604372,712,-6913.0,-8193.0,7935.0,0.0,0.0,0.0,0.0,0.0,0.0,0
76f897717d325b35,1551765604373,713,-6657.0,-8193.0,7935.0,0.0,0.0,0.0,0.0,0.0,0.0,0
76f897717d325b35,1551765604401,714,-6657.0,-8193.0,7935.0,0.0,0.0,0.0,0.0,0.0,0.0,0
76f897717d325b35,1551765604460,715,-6657.0,-8449.0,7423.0,0.0,0.0,0.0,0.0,0.0,0.0,0
76f897717d325b35,1551765604521,716,-6401.0,-8193.0,7423.0,0.0,0.0,0.0,0.0,0.0,0.0,0
76f897717d325b35,1551765604611,717,-6657.0,-8193.0,7423.0,0.0,0.0,0.0,0.0,0.0,0.0,0
76f897717d325b35,1551765604641,718,-6657.0,-8705.0,6911.0,0.0,0.0,0.0,0.0,0.0,0.0,0
76f897717d325b35,1551765604731,719,-6145.0,-7681.0,7167.0,0.0,0.0,0.0,0.0,0.0,0.0,0
76f897717d325b35,1551765604851,720,-6145.0,-8193.0,6911.0,0.0,0.0,0.0,0.0,0.0,0.0,0
76f897717d325b35,1551765604881,721,-6401.0,-7937.0,7167.0,0.0,0.0,0.0,0.0,0.0,0.0,0
76f897717d325b35,1551765605600,722,-6145.0,-8193.0,7167.0,0.0,0.0,0.0,0.0,0.0,0.0,0
76f897717d325b35,1551765605601,723,-6145.0,-8193.0,6655.0,0.0,0.0,0.0,0.0,0.0,0.0,0
76f897717d325b35,1551765605630,724,-6401.0,-7681.0,6399.0,0.0,0.0,0.0,0.0,0.0,0.0,0
76f897717d325b35,1551765605632,725,-6401.0,-7937.0,6911.0,0.0,0.0,0.0,0.0,0.0,0.0,0
76f897717d325b35,1551765605633,726,-6401.0,-7681.0,6655.0,0.0,0.0,0.0,0.0,0.0,0.0,0
76f897717d325b35,1551765605634,727,-6401.0,-7937.0,6399.0,0.0,0.0,0.0,0.0,0.0,0.0,0
76f897717d325b35,1551765605635,728,-6913.0,-7169.0,5631.0,0.0,0.0,0.0,0.0,0.0,0.0,0
76f897717d325b35,1551765606230,729,-6657.0,-6913.0,5631.0,0.0,0.0,0.0,0.0,0.0,0.0,0
76f897717d325b35,1551765606740,730,-6657.0,-6657.0,5887.0,0.0,0.0,0.0,0.0,0.0,0.0,0
76f897717d325b35,1551765606741,731,-6657.0,-6657.0,5631.0,0.0,0.0,0.0,0.0,0.0,0.0,0
76f897717d325b35,1551765606742,732,-6657.0,-6657.0,5631.0,0.0,0.0,0.0,0.0,0.0,0.0,0
76f897717d325b35,1551765606770,733,-6657.0,-6657.0,5375.0,0.0,0.0,0.0,0.0,0.0,0.0,0
76f897717d325b35,1551765606771,734,-6913.0,-6401.0,5631.0,0.0,0.0,0.0,0.0,0.0,0.0,0
76f897717d325b35,1551765606830,735,-6657.0,-6401.0,5631.0,0.0,0.0,0.0,0.0,0.0,0.0,0
76f897717d325b35,1551765606860,736,-6913.0,-6145.0,5631.0,0.0,0.0,0.0,0.0,0.0,0.0,0
76f897717d325b35,1551765606890,737,-6913.0,-6145.0,5631.0,0.0,0.0,0.0,0.0,0.0,0.0,0
76f897717d325b35,1551765606891,738,-7169.0,-5889.0,5887.0,0.0,0.0,0.0,0.0,0.0,0.0,0
76f897717d325b35,1551765606892,739,-7425.0,-6145.0,5631.0,0.0,0.0,0.0,0.0,0.0,0.0,0
76f897717d325b35,1551765606951,740,-6913.0,-6145.0,5631.0,0.0,0.0,0.0,0.0,0.0,0.0,0
76f897717d325b35,1551765607041,741,-7169.0,-5889.0,5631.0,0.0,0.0,0.0,0.0,0.0,0.0,0
76f897717d325b35,1551765607100,742,-7169.0,-5889.0,5631.0,0.0,0.0,0.0,0.0,0.0,0.0,0
76f897717d325b35,1551765607160,743,-7169.0,-6145.0,5631.0,0.0,0.0,0.0,0.0,0.0,0.0,0
76f897717d325b35,1551765607221,744,-7169.0,-6145.0,5631.0,0.0,0.0,0.0,0.0,0.0,0.0,0
76f897717d325b35,1551765607281,745,-7169.0,-6145.0,5631.0,0.0,0.0,0.0,0.0,0.0,0.0,0
76f897717d325b35,1551765607700,746,-6913.0,-6145.0,5631.0,0.0,0.0,0.0,0.0,0.0,0.0,0
76f897717d325b35,1551765607701,747,-6913.0,-6145.0,5631.0,0.0,0.0,0.0,0.0,0.0,0.0,0
76f897717d325b35,1551765607703,748,-7169.0,-6145.0,5631.0,0.0,0.0,0.0,0.0,0.0,0.0,0
76f897717d325b35,1551765607704,749,-7169.0,-6145.0,5631.0,0.0,0.0,0.0,0.0,0.0,0.0,0
76f897717d325b35,1551765607705,750,-6913.0,-6145.0,5631.0,0.0,0.0,0.0,0.0,0.0,0.0,0
76f897717d325b35,1551765607706,751,-7169.0,-6145.0,5631.0,0.0,0.0,0.0,0.0,0.0,0.0,0
76f897717d325b35,1551765607790,752,-6913.0,-6145.0,5631.0,0.0,0.0,0.0,0.0,0.0,0.0,0
76f897717d325b35,1551765607821,753,-6913.0,-6145.0,5631.0,0.0,0.0,0.0,0.0,0.0,0.0,0
76f897717d325b35,1551765607881,754,-6913.0,-6145.0,5631.0,0.0,0.0,0.0,0.0,0.0,0.0,0
76f897717d325b35,1551765607941,755,-6913.0,-6145.0,5631.0,0.0,0.0,0.0,0.0,0.0,0.0,0
76f897717d325b35,1551765608061,756,-6913.0,-6145.0,5631.0,0.0,0.0,0.0,0.0,0.0,0.0,0
76f897717d325b35,1551765608090,757,-7169.0,-6145.0,5631.0,0.0,0.0,0.0,0.0,0.0,0.0,0
76f897717d325b35,1551765608151,758,-6913.0,-6145.0,5631.0,0.0,0.0,0.0,0.0,0.0,0.0,0
76f897717d325b35,1551765608211,759,-6913.0,-6145.0,5631.0,0.0,0.0,0.0,0.0,0.0,0.0,0
76f897717d325b35,1551765608331,760,-6913.0,-6145.0,5631.0,0.0,0.0,0.0,0.0,0.0,0.0,0
76f897717d325b35,1551765608420,761,-6913.0,-6145.0,5631.0,0.0,0.0,0.0,0.0,0.0,0.0,0
76f897717d325b35,1551765608422,762,-6913.0,-6145.0,5631.0,0.0,0.0,0.0,0.0,0.0,0.0,0
76f897717d325b35,1551765608481,763,-6913.0,-6145.0,5631.0,0.0,0.0,0.0,0.0,0.0,0.0,0
76f897717d325b35,1551765608541,764,-6913.0,-6145.0,5631.0,0.0,0.0,0.0,0.0,0.0,0.0,0
76f897717d325b35,1551765608600,765,-6913.0,-6145.0,5631.0,0.0,0.0,0.0,0.0,0.0,0.0,0
76f897717d325b35,1551765608690,766,-6913.0,-6145.0,5631.0,0.0,0.0,0.0,0.0,0.0,0.0,0
76f897717d325b35,1551765608810,767,-6913.0,-6145.0,5631.0,0.0,0.0,0.0,0.0,0.0,0.0,0
76f897717d325b35,1551765608812,768,-6913.0,-6145.0,5631.0,0.0,0.0,0.0,0.0,0.0,0.0,0
76f897717d325b35,1551765608870,769,-6913.0,-6145.0,5631.0,0.0,0.0,0.0,0.0,0.0,0.0,0
76f897717d325b35,1551765608931,770,-6913.0,-6145.0,5631.0,0.0,0.0,0.0,0.0,0.0,0.0,0
76f897717d325b35,1551765609021,771,-7169.0,-6145.0,5631.0,0.0,0.0,0.0,0.0,0.0,0.0,0
76f897717d325b35,1551765609081,772,-6913.0,-6145.0,5631.0,0.0,0.0,0.0,0.0,0.0,0.0,0
76f897717d325b35,1551765609141,773,-7169.0,-6145.0,5631.0,0.0,0.0,0.0,0.0,0.0,0.0,0
76f897717d325b35,1551765609201,774,-6913.0,-6145.0,5631.0,0.0,0.0,0.0,0.0,0.0,0.0,0
76f897717d325b35,1551765609290,775,-7169.0,-6145.0,5631.0,0.0,0.0,0.0,0.0,0.0,0.0,0
76f897717d325b35,1551765609440,776,-6913.0,-6145.0,5631.0,0.0,0.0,0.0,0.0,0.0,0.0,0
76f897717d325b35,1551765609441,777,-6913.0,-6145.0,5631.0,0.0,0.0,0.0,0.0,0.0,0.0,0
76f897717d325b35,1551765609530,778,-7169.0,-6145.0,5631.0,0.0,0.0,0.0,0.0,0.0,0.0,0
76f897717d325b35,1551765609560,779,-6913.0,-6145.0,5631.0,0.0,0.0,0.0,0.0,0.0,0.0,0
76f897717d325b35,1551765609590,780,-6913.0,-6145.0,5631.0,0.0,0.0,0.0,0.0,0.0,0.0,0
76f897717d325b35,1551765609680,781,-6913.0,-6145.0,5631.0,0.0,0.0,0.0,0.0,0.0,0.0,0
76f897717d325b35,1551765609740,782,-7169.0,-6145.0,5631.0,0.0,0.0,0.0,0.0,0.0,0.0,0
76f897717d325b35,1551765609800,783,-6913.0,-6145.0,5631.0,0.0,0.0,0.0,0.0,0.0,0.0,0
76f897717d325b35,1551765609920,784,-6913.0,-6145.0,5631.0,0.0,0.0,0.0,0.0,0.0,0.0,0
76f897717d325b35,1551765609921,785,-6913.0,-6145.0,5631.0,0.0,0.0,0.0,0.0,0.0,0.0,0
76f897717d325b35,1551765610011,786,-6913.0,-6145.0,5631.0,0.0,0.0,0.0,0.0,0.0,0.0,0
76f897717d325b35,1551765636749,787,-6913.0,-6145.0,5631.0,0.0,0.0,0.0,0.0,0.0,0.0,0
76f897717d325b35,1551765636870,788,-6913.0,-6145.0,5631.0,0.0,0.0,0.0,0.0,0.0,0.0,0
76f897717d325b35,1551765636871,789,-6913.0,-6145.0,5631.0,0.0,0.0,0.0,0.0,0.0,0.0,0
76f897717d325b35,1551765636930,790,-6913.0,-6145.0,5631.0,0.0,0.0,0.0,0.0,0.0,0.0,0
76f897717d325b35,1551765637050,791,-6913.0,-6145.0,5631.0,0.0,0.0,0.0,0.0,0.0,0.0,0
76f897717d325b35,1551765637169,792,-6913.0,-6145.0,5631.0,0.0,0.0,0.0,0.0,0.0,0.0,0
76f897717d325b35,1551765637170,793,-6913.0,-6145.0,5631.0,0.0,0.0,0.0,0.0,0.0,0.0,0
76f897717d325b35,1551765637200,794,-6913.0,-6145.0,5631.0,0.0,0.0,0.0,0.0,0.0,0.0,0
76f897717d325b35,1551765637260,795,-6913.0,-6145.0,5631.0,0.0,0.0,0.0,0.0,0.0,0.0,0
76f897717d325b35,1551765637350,796,-6913.0,-6145.0,5631.0,0.0,0.0,0.0,0.0,0.0,0.0,0
76f897717d325b35,1551765637469,797,-6913.0,-6145.0,5631.0,0.0,0.0,0.0,0.0,0.0,0.0,0
76f897717d325b35,1551765637470,798,-6913.0,-6145.0,5631.0,0.0,0.0,0.0,0.0,0.0,0.0,0
76f897717d325b35,1551765637560,799,-6913.0,-6145.0,5631.0,0.0,0.0,0.0,0.0,0.0,0.0,0
76f897717d325b35,1551765637650,800,-6913.0,-6145.0,5631.0,0.0,0.0,0.0,0.0,0.0,0.0,0
76f897717d325b35,1551765637679,801,-6913.0,-6145.0,5631.0,0.0,0.0,0.0,0.0,0.0,0.0,0
76f897717d325b35,1551765637740,802,-6913.0,-6145.0,5631.0,0.0,0.0,0.0,0.0,0.0,0.0,0
76f897717d325b35,1551765637800,803,-6913.0,-6145.0,5631.0,0.0,0.0,0.0,0.0,0.0,0.0,0
76f897717d325b35,1551765637890,804,-6913.0,-6145.0,5631.0,0.0,0.0,0.0,0.0,0.0,0.0,0
76f897717d325b35,1551765637950,805,-6913.0,-6145.0,5631.0,0.0,0.0,0.0,0.0,0.0,0.0,0
76f897717d325b35,1551765638099,806,-6913.0,-6145.0,5631.0,0.0,0.0,0.0,0.0,0.0,0.0,0
76f897717d325b35,1551765638101,807,-6913.0,-6145.0,5631.0,0.0,0.0,0.0,0.0,0.0,0.0,0
76f897717d325b35,1551765638160,808,-6913.0,-6145.0,5631.0,0.0,0.0,0.0,0.0,0.0,0.0,0
76f897717d325b35,1551765638189,809,-6913.0,-6145.0,5631.0,0.0,0.0,0.0,0.0,0.0,0.0,0
76f897717d325b35,1551765638280,810,-6913.0,-6145.0,5631.0,0.0,0.0,0.0,0.0,0.0,0.0,0
76f897717d325b35,1551765638370,811,-6913.0,-6145.0,5631.0,0.0,0.0,0.0,0.0,0.0,0.0,0
76f897717d325b35,1551765638400,812,-6913.0,-6145.0,5631.0,0.0,0.0,0.0,0.0,0.0,0.0,0
76f897717d325b35,1551765638460,813,-6913.0,-6145.0,5631.0,0.0,0.0,0.0,0.0,0.0,0.0,0
76f897717d325b35,1551765638579,814,-6913.0,-6145.0,5631.0,0.0,0.0,0.0,0.0,0.0,0.0,0
76f897717d325b35,1551765638581,815,-6913.0,-6145.0,5631.0,0.0,0.0,0.0,0.0,0.0,0.0,0
76f897717d325b35,1551765638670,816,-6913.0,-6145.0,5631.0,0.0,0.0,0.0,0.0,0.0,0.0,0
76f897717d325b35,1551765638759,817,-6913.0,-6145.0,5631.0,0.0,0.0,0.0,0.0,0.0,0.0,0
76f897717d325b35,1551765638789,818,-6913.0,-6145.0,5631.0,0.0,0.0,0.0,0.0,0.0,0.0,0
76f897717d325b35,1551765638880,819,-6913.0,-6145.0,5631.0,0.0,0.0,0.0,0.0,0.0,0.0,0
76f897717d325b35,1551765638910,820,-6913.0,-6145.0,5631.0,0.0,0.0,0.0,0.0,0.0,0.0,0
76f897717d325b35,1551765639000,821,-6913.0,-6145.0,5631.0,0.0,0.0,0.0,0.0,0.0,0.0,0
76f897717d325b35,1551765639090,822,-6913.0,-6145.0,5631.0,0.0,0.0,0.0,0.0,0.0,0.0,0
76f897717d325b35,1551765639120,823,-6913.0,-6145.0,5631.0,0.0,0.0,0.0,0.0,0.0,0.0,0
76f897717d325b35,1551765639180,824,-6913.0,-6145.0,5631.0,0.0,0.0,0.0,0.0,0.0,0.0,0
76f897717d325b35,1551765639240,825,-6913.0,-6145.0,5631.0,0.0,0.0,0.0,0.0,0.0,0.0,0
76f897717d325b35,1551765639360,826,-6913.0,-6145.0,5631.0,0.0,0.0,0.0,0.0,0.0,0.0,0
76f897717d325b35,1551765639390,827,-6913.0,-6145.0,5631.0,0.0,0.0,0.0,0.0,0.0,0.0,0
76f897717d325b35,1551765639509,828,-6913.0,-6145.0,5631.0,0.0,0.0,0.0,0.0,0.0,0.0,0
76f897717d325b35,1551765639510,829,-6913.0,-6145.0,5631.0,0.0,0.0,0.0,0.0,0.0,0.0,0
76f897717d325b35,1551765639630,830,-6913.0,-6145.0,5631.0,0.0,0.0,0.0,0.0,0.0,0.0,0
76f897717d325b35,1551765639689,831,-6913.0,-6145.0,5631.0,0.0,0.0,0.0,0.0,0.0,0.0,0
76f897717d325b35,1551765639719,832,-6913.0,-6145.0,5631.0,0.0,0.0,0.0,0.0,0.0,0.0,0
76f897717d325b35,1551765639839,833,-6913.0,-6145.0,5631.0,0.0,0.0,0.0,0.0,0.0,0.0,0
76f897717d325b35,1551765639841,834,-6913.0,-6145.0,5631.0,0.0,0.0,0.0,0.0,0.0,0.0,0
76f897717d325b35,1551765639900,835,-6913.0,-6145.0,5631.0,0.0,0.0,0.0,0.0,0.0,0.0,0
76f897717d325b35,1551765639990,836,-6913.0,-6145.0,5631.0,0.0,0.0,0.0,0.0,0.0,0.0,0
76f897717d325b35,1551765640109,837,-6913.0,-6145.0,5631.0,0.0,0.0,0.0,0.0,0.0,0.0,0
76f897717d325b35,1551765640111,838,-6913.0,-6145.0,5631.0,0.0,0.0,0.0,0.0,0.0,0.0,0
76f897717d325b35,1551765640200,839,-6913.0,-6145.0,5631.0,0.0,0.0,0.0,0.0,0.0,0.0,0
76f897717d325b35,1551765640230,840,-6913.0,-6145.0,5631.0,0.0,0.0,0.0,0.0,0.0,0.0,0
76f897717d325b35,1551765640320,841,-6913.0,-6145.0,5631.0,0.0,0.0,0.0,0.0,0.0,0.0,0
76f897717d325b35,1551765640410,842,-6913.0,-6145.0,5631.0,0.0,0.0,0.0,0.0,0.0,0.0,0
76f897717d325b35,1551765640469,843,-6913.0,-6145.0,5631.0,0.0,0.0,0.0,0.0,0.0,0.0,0
76f897717d325b35,1551765640500,844,-6913.0,-6145.0,5631.0,0.0,0.0,0.0,0.0,0.0,0.0,0
76f897717d325b35,1551765640560,845,-6913.0,-6145.0,5631.0,0.0,0.0,0.0,0.0,0.0,0.0,0
76f897717d325b35,1551765640650,846,-6913.0,-6145.0,5631.0,0.0,0.0,0.0,0.0,0.0,0.0,0
76f897717d325b35,1551765640710,847,-6913.0,-6145.0,5631.0,0.0,0.0,0.0,0.0,0.0,0.0,0
76f897717d325b35,1551765640769,848,-6913.0,-6145.0,5631.0,0.0,0.0,0.0,0.0,0.0,0.0,0
76f897717d325b35,1551765640830,849,-6913.0,-6145.0,5631.0,0.0,0.0,0.0,0.0,0.0,0.0,0
76f897717d325b35,1551765640890,850,-6913.0,-6145.0,5631.0,0.0,0.0,0.0,0.0,0.0,0.0,0
76f897717d325b35,1551765641009,851,-6913.0,-6145.0,5631.0,0.0,0.0,0.0,0.0,0.0,0.0,0
76f897717d325b35,1551765641129,852,-6913.0,-6145.0,5631.0,0.0,0.0,0.0,0.0,0.0,0.0,0
76f897717d325b35,1551765641130,853,-6913.0,-6145.0,5631.0,0.0,0.0,0.0,0.0,0.0,0.0,0
76f897717d325b35,1551765641190,854,-6913.0,-6145.0,5631.0,0.0,0.0,0.0,0.0,0.0,0.0,0
76f897717d325b35,1551765641220,855,-6913.0,-6145.0,5631.0,0.0,0.0,0.0,0.0,0.0,0.0,0
76f897717d325b35,1551765641369,856,-6913.0,-6145.0,5631.0,0.0,0.0,0.0,0.0,0.0,0.0,0
76f897717d325b35,1551765641429,857,-6913.0,-6145.0,5631.0,0.0,0.0,0.0,0.0,0.0,0.0,0
76f897717d325b35,1551765641431,858,-6913.0,-6145.0,5631.0,0.0,0.0,0.0,0.0,0.0,0.0,0
76f897717d325b35,1551765641669,859,-6913.0,-6145.0,5631.0,0.0,0.0,0.0,0.0,0.0,0.0,0
76f897717d325b35,1551765641670,860,-6913.0,-6145.0,5631.0,0.0,0.0,0.0,0.0,0.0,0.0,0
76f897717d325b35,1551765641671,861,-6913.0,-6145.0,5631.0,0.0,0.0,0.0,0.0,0.0,0.0,0
76f897717d325b35,1551765641700,862,-6913.0,-6145.0,5631.0,0.0,0.0,0.0,0.0,0.0,0.0,0
76f897717d325b35,1551765641760,863,-6913.0,-6145.0,5631.0,0.0,0.0,0.0,0.0,0.0,0.0,0
76f897717d325b35,1551765641849,864,-6913.0,-6145.0,5631.0,0.0,0.0,0.0,0.0,0.0,0.0,0
76f897717d325b35,1551765641910,865,-6913.0,-6145.0,5631.0,0.0,0.0,0.0,0.0,0.0,0.0,0
76f897717d325b35,1551765642059,866,-6913.0,-6145.0,5631.0,0.0,0.0,0.0,0.0,0.0,0.0,0
76f897717d325b35,1551765642060,867,-6913.0,-6145.0,5631.0,0.0,0.0,0.0,0.0,0.0,0.0,0
76f897717d325b35,1551765642090,868,-6913.0,-6145.0,5631.0,0.0,0.0,0.0,0.0,0.0,0.0,0
76f897717d325b35,1551765642150,869,-6913.0,-6145.0,5631.0,0.0,0.0,0.0,0.0,0.0,0.0,0
76f897717d325b35,1551765642299,870,-6913.0,-6145.0,5631.0,0.0,0.0,0.0,0.0,0.0,0.0,0
76f897717d325b35,1551765642300,871,-6913.0,-6145.0,5631.0,0.0,0.0,0.0,0.0,0.0,0.0,0
76f897717d325b35,1551765642389,872,-6913.0,-6145.0,5631.0,0.0,0.0,0.0,0.0,0.0,0.0,0
76f897717d325b35,1551765642629,873,-6913.0,-6145.0,5631.0,0.0,0.0,0.0,0.0,0.0,0.0,0
76f897717d325b35,1551765642631,874,-6913.0,-6145.0,5631.0,0.0,0.0,0.0,0.0,0.0,0.0,0
76f897717d325b35,1551765642632,875,-6913.0,-6145.0,5631.0,0.0,0.0,0.0,0.0,0.0,0.0,0
76f897717d325b35,1551765642633,876,-6913.0,-6145.0,5631.0,0.0,0.0,0.0,0.0,0.0,0.0,0
76f897717d325b35,1551765642719,877,-6913.0,-6145.0,5631.0,0.0,0.0,0.0,0.0,0.0,0.0,0
76f897717d325b35,1551765642780,878,-6913.0,-6145.0,5631.0,0.0,0.0,0.0,0.0,0.0,0.0,0
76f897717d325b35,1551765642810,879,-6913.0,-6145.0,5631.0,0.0,0.0,0.0,0.0,0.0,0.0,0
76f897717d325b35,1551765642869,880,-6913.0,-6145.0,5631.0,0.0,0.0,0.0,0.0,0.0,0.0,0
76f897717d325b35,1551765643019,881,-6913.0,-6145.0,5631.0,0.0,0.0,0.0,0.0,0.0,0.0,0
76f897717d325b35,1551765643021,882,-6913.0,-6145.0,5631.0,0.0,0.0,0.0,0.0,0.0,0.0,0
76f897717d325b35,1551765643080,883,-6913.0,-6145.0,5631.0,0.0,0.0,0.0,0.0,0.0,0.0,0
76f897717d325b35,1551765643169,884,-6913.0,-6145.0,5631.0,0.0,0.0,0.0,0.0,0.0,0.0,0
76f897717d325b35,1551765643200,885,-6913.0,-6145.0,5631.0,0.0,0.0,0.0,0.0,0.0,0.0,0
76f897717d325b35,1551765643290,886,-6913.0,-5889.0,5631.0,0.0,0.0,0.0,0.0,0.0,0.0,0
76f897717d325b35,1551765643439,887,-6913.0,-6145.0,5631.0,0.0,0.0,0.0,0.0,0.0,0.0,0
76f897717d325b35,1551765643441,888,-6913.0,-6145.0,5631.0,0.0,0.0,0.0,0.0,0.0,0.0,0
76f897717d325b35,1551765643500,889,-6913.0,-6145.0,5631.0,0.0,0.0,0.0,0.0,0.0,0.0,0
76f897717d325b35,1551765643590,890,-7169.0,-6145.0,5375.0,0.0,0.0,0.0,0.0,0.0,0.0,0
76f897717d325b35,1551765643650,891,-6913.0,-6145.0,5631.0,0.0,0.0,0.0,0.0,0.0,0.0,0
76f897717d325b35,1551765643799,892,-7169.0,-6145.0,5375.0,0.0,0.0,0.0,0.0,0.0,0.0,0
76f897717d325b35,1551765643889,893,-6913.0,-6145.0,5887.0,0.0,0.0,0.0,0.0,0.0,0.0,0
76f897717d325b35,1551765643890,894,-6913.0,-6913.0,5375.0,0.0,0.0,0.0,0.0,0.0,0.0,0
76f897717d325b35,1551765643891,895,-7169.0,-7169.0,5631.0,0.0,0.0,0.0,0.0,0.0,0.0,0
76f897717d325b35,1551765643980,896,-6913.0,-7169.0,6143.0,0.0,0.0,0.0,0.0,0.0,0.0,0
76f897717d325b35,1551765644040,897,-6401.0,-7681.0,6655.0,0.0,0.0,0.0,0.0,0.0,0.0,0
76f897717d325b35,1551765644100,898,-6401.0,-8193.0,6911.0,0.0,0.0,0.0,0.0,0.0,0.0,0
76f897717d325b35,1551765644129,899,-6657.0,-8193.0,7167.0,0.0,0.0,0.0,0.0,0.0,0.0,0
76f897717d325b35,1551765644249,900,-6401.0,-8193.0,7423.0,0.0,0.0,0.0,0.0,0.0,0.0,0
76f897717d325b35,1551765644310,901,-6401.0,-8449.0,7679.0,0.0,0.0,0.0,0.0,0.0,0.0,0
76f897717d325b35,1551765644369,902,-6657.0,-8449.0,7935.0,0.0,0.0,0.0,0.0,0.0,0.0,0
76f897717d325b35,1551765644400,903,-6401.0,-8705.0,8191.0,0.0,0.0,0.0,0.0,0.0,0.0,0
76f897717d325b35,1551765644460,904,-6145.0,-8449.0,8447.0,0.0,0.0,0.0,0.0,0.0,0.0,0
76f897717d325b35,1551765644519,905,-6401.0,-8193.0,8447.0,0.0,0.0,0.0,0.0,0.0,0.0,0
76f897717d325b35,1551765644610,906,-6657.0,-8705.0,8703.0,0.0,0.0,0.0,0.0,0.0,0.0,0
76f897717d325b35,1551765644669,907,-6401.0,-8193.0,8959.0,0.0,0.0,0.0,0.0,0.0,0.0,0
76f897717d325b35,1551765645029,908,-6657.0,-8449.0,8959.0,0.0,0.0,0.0,0.0,0.0,0.0,0
76f897717d325b35,1551765645030,909,-6657.0,-8193.0,8959.0,0.0,0.0,0.0,0.0,0.0,0.0,0
76f897717d325b35,1551765645032,910,-6913.0,-8193.0,9215.0,0.0,0.0,0.0,0.0,0.0,0.0,0
76f897717d325b35,1551765645033,911,-6657.0,-8193.0,9215.0,0.0,0.0,0.0,0.0,0.0,0.0,0
76f897717d325b35,1551765645034,912,-6657.0,-8449.0,9215.0,0.0,0.0,0.0,0.0,0.0,0.0,0
76f897717d325b35,1551765645060,913,-6913.0,-8449.0,9215.0,0.0,0.0,0.0,0.0,0.0,0.0,0
76f897717d325b35,1551765645179,914,-6913.0,-8193.0,9215.0,0.0,0.0,0.0,0.0,0.0,0.0,0
76f897717d325b35,1551765645180,915,-6913.0,-8449.0,9215.0,0.0,0.0,0.0,0.0,0.0,0.0,0
76f897717d325b35,1551765645329,916,-6913.0,-8449.0,9215.0,0.0,0.0,0.0,0.0,0.0,0.0,0
76f897717d325b35,1551765645330,917,-6913.0,-8449.0,9215.0,0.0,0.0,0.0,0.0,0.0,0.0,0
76f897717d325b35,1551765645389,918,-6913.0,-8449.0,9215.0,0.0,0.0,0.0,0.0,0.0,0.0,0
76f897717d325b35,1551765645480,919,-6913.0,-8449.0,9215.0,0.0,0.0,0.0,0.0,0.0,0.0,0
76f897717d325b35,1551765645540,920,-6913.0,-8449.0,8959.0,0.0,0.0,0.0,0.0,0.0,0.0,0
76f897717d325b35,1551765645600,921,-6913.0,-8449.0,9215.0,0.0,0.0,0.0,0.0,0.0,0.0,0
76f897717d325b35,1551765645660,922,-6913.0,-8449.0,9215.0,0.0,0.0,0.0,0.0,0.0,0.0,0
76f897717d325b35,1551765646379,923,-6913.0,-8449.0,9215.0,0.0,0.0,0.0,0.0,0.0,0.0,0
76f897717d325b35,1551765646380,924,-6913.0,-8449.0,9215.0,0.0,0.0,0.0,0.0,0.0,0.0,0
76f897717d325b35,1551765646381,925,-6913.0,-8449.0,9215.0,0.0,0.0,0.0,0.0,0.0,0.0,0
76f897717d325b35,1551765646469,926,-6913.0,-8449.0,8959.0,0.0,0.0,0.0,0.0,0.0,0.0,0
76f897717d325b35,1551765646470,927,-6913.0,-8449.0,9215.0,0.0,0.0,0.0,0.0,0.0,0.0,0
76f897717d325b35,1551765646799,928,-7169.0,-8449.0,9215.0,0.0,0.0,0.0,0.0,0.0,0.0,0
76f897717d325b35,1551765646801,929,-6913.0,-8449.0,9215.0,0.0,0.0,0.0,0.0,0.0,0.0,0
76f897717d325b35,1551765646802,930,-6913.0,-8449.0,9215.0,0.0,0.0,0.0,0.0,0.0,0.0,0
76f897717d325b35,1551765646803,931,-6913.0,-8449.0,9215.0,0.0,0.0,0.0,0.0,0.0,0.0,0
76f897717d325b35,1551765646804,932,-6913.0,-8449.0,9215.0,0.0,0.0,0.0,0.0,0.0,0.0,0
76f897717d325b35,1551765646805,933,-6913.0,-8449.0,9215.0,0.0,0.0,0.0,0.0,0.0,0.0,0
76f897717d325b35,1551765646860,934,-6913.0,-8449.0,9215.0,0.0,0.0,0.0,0.0,0.0,0.0,0
76f897717d325b35,1551765646950,935,-6913.0,-8449.0,9215.0,0.0,0.0,0.0,0.0,0.0,0.0,0
76f897717d325b35,1551765647009,936,-6913.0,-8449.0,9215.0,0.0,0.0,0.0,0.0,0.0,0.0,0
76f897717d325b35,1551765647489,937,-6913.0,-8449.0,9215.0,0.0,0.0,0.0,0.0,0.0,0.0,0
76f897717d325b35,1551765647490,938,-6913.0,-8449.0,9215.0,0.0,0.0,0.0,0.0,0.0,0.0,0
76f897717d325b35,1551765647699,939,-6913.0,-8449.0,9215.0,0.0,0.0,0.0,0.0,0.0,0.0,0
76f897717d325b35,1551765647700,940,-6913.0,-8449.0,9215.0,0.0,0.0,0.0,0.0,0.0,0.0,0
76f897717d325b35,1551765647789,941,-6913.0,-8449.0,9215.0,0.0,0.0,0.0,0.0,0.0,0.0,0
76f897717d325b35,1551765647790,942,-6913.0,-8449.0,9215.0,0.0,0.0,0.0,0.0,0.0,0.0,0
76f897717d325b35,1551765647849,943,-6913.0,-8449.0,9215.0,0.0,0.0,0.0,0.0,0.0,0.0,0
76f897717d325b35,1551765647850,944,-6913.0,-8449.0,9215.0,0.0,0.0,0.0,0.0,0.0,0.0,0
76f897717d325b35,1551765647851,945,-6913.0,-8449.0,9215.0,0.0,0.0,0.0,0.0,0.0,0.0,0
76f897717d325b35,1551765647852,946,-6913.0,-8449.0,9215.0,0.0,0.0,0.0,0.0,0.0,0.0,0
76f897717d325b35,1551765647853,947,-6913.0,-8449.0,9215.0,0.0,0.0,0.0,0.0,0.0,0.0,0
76f897717d325b35,1551765647910,948,-6913.0,-8449.0,9215.0,0.0,0.0,0.0,0.0,0.0,0.0,0
76f897717d325b35,1551765647969,949,-6913.0,-8449.0,9215.0,0.0,0.0,0.0,0.0,0.0,0.0,0
76f897717d325b35,1551765648028,950,-6913.0,-8449.0,9215.0,0.0,0.0,0.0,0.0,0.0,0.0,0
76f897717d325b35,1551765648030,951,-6913.0,-8449.0,9215.0,0.0,0.0,0.0,0.0,0.0,0.0,0
76f897717d325b35,1551765648090,952,-6913.0,-8449.0,9215.0,0.0,0.0,0.0,0.0,0.0,0.0,0
76f897717d325b35,1551765648180,953,-6913.0,-8449.0,9215.0,0.0,0.0,0.0,0.0,0.0,0.0,0
76f897717d325b35,1551765648419,954,-6913.0,-8449.0,9215.0,0.0,0.0,0.0,0.0,0.0,0.0,0
76f897717d325b35,1551765648420,955,-6913.0,-8449.0,9215.0,0.0,0.0,0.0,0.0,0.0,0.0,0
76f897717d325b35,1551765648509,956,-6913.0,-8449.0,9215.0,0.0,0.0,0.0,0.0,0.0,0.0,0
76f897717d325b35,1551765648569,957,-6913.0,-8449.0,9215.0,0.0,0.0,0.0,0.0,0.0,0.0,0
76f897717d325b35,1551765648629,958,-6913.0,-8449.0,9215.0,0.0,0.0,0.0,0.0,0.0,0.0,0
76f897717d325b35,1551765648630,959,-6913.0,-8449.0,9215.0,0.0,0.0,0.0,0.0,0.0,0.0,0
76f897717d325b35,1551765648631,960,-6913.0,-8449.0,9215.0,0.0,0.0,0.0,0.0,0.0,0.0,0
76f897717d325b35,1551765648632,961,-6913.0,-8449.0,9215.0,0.0,0.0,0.0,0.0,0.0,0.0,0
76f897717d325b35,1551765648718,962,-6913.0,-8449.0,9215.0,0.0,0.0,0.0,0.0,0.0,0.0,0
76f897717d325b35,1551765648720,963,-6913.0,-8449.0,9215.0,0.0,0.0,0.0,0.0,0.0,0.0,0
76f897717d325b35,1551765648749,964,-6913.0,-8449.0,9215.0,0.0,0.0,0.0,0.0,0.0,0.0,0
76f897717d325b35,1551765648810,965,-6913.0,-8449.0,9215.0,0.0,0.0,0.0,0.0,0.0,0.0,0
76f897717d325b35,1551765648899,966,-6913.0,-8449.0,9215.0,0.0,0.0,0.0,0.0,0.0,0.0,0
76f897717d325b35,1551765648960,967,-6913.0,-8449.0,9215.0,0.0,0.0,0.0,0.0,0.0,0.0,0
76f897717d325b35,1551765649019,968,-6913.0,-8449.0,9215.0,0.0,0.0,0.0,0.0,0.0,0.0,0
76f897717d325b35,1551765649020,969,-6913.0,-8449.0,9215.0,0.0,0.0,0.0,0.0,0.0,0.0,0
76f897717d325b35,1551765649110,970,-6913.0,-8449.0,9215.0,0.0,0.0,0.0,0.0,0.0,0.0,0
76f897717d325b35,1551765649169,971,-6913.0,-8449.0,9215.0,0.0,0.0,0.0,0.0,0.0,0.0,0
76f897717d325b35,1551765649349,972,-6913.0,-8449.0,9215.0,0.0,0.0,0.0,0.0,0.0,0.0,0
76f897717d325b35,1551765649350,973,-6913.0,-8449.0,9215.0,0.0,0.0,0.0,0.0,0.0,0.0,0
76f897717d325b35,1551765649378,974,-6913.0,-8449.0,9215.0,0.0,0.0,0.0,0.0,0.0,0.0,0
76f897717d325b35,1551765649380,975,-6913.0,-8449.0,9215.0,0.0,0.0,0.0,0.0,0.0,0.0,0
76f897717d325b35,1551765649409,976,-6913.0,-8449.0,9215.0,0.0,0.0,0.0,0.0,0.0,0.0,0
76f897717d325b35,1551765649469,977,-6913.0,-8449.0,9215.0,0.0,0.0,0.0,0.0,0.0,0.0,0
76f897717d325b35,1551765649619,978,-6913.0,-8449.0,9215.0,0.0,0.0,0.0,0.0,0.0,0.0,0
76f897717d325b35,1551765649620,979,-6913.0,-8449.0,9215.0,0.0,0.0,0.0,0.0,0.0,0.0,0
76f897717d325b35,1551765649830,980,-6913.0,-8449.0,9215.0,0.0,0.0,0.0,0.0,0.0,0.0,0
76f897717d325b35,1551765649831,981,-6913.0,-8449.0,9215.0,0.0,0.0,0.0,0.0,0.0,0.0,0
76f897717d325b35,1551765649833,982,-6913.0,-8449.0,9215.0,0.0,0.0,0.0,0.0,0.0,0.0,0
76f897717d325b35,1551765649834,983,-6913.0,-8449.0,9215.0,0.0,0.0,0.0,0.0,0.0,0.0,0
76f897717d325b35,1551765649948,984,-6913.0,-8449.0,9215.0,0.0,0.0,0.0,0.0,0.0,0.0,0
76f897717d325b35,1551765649950,985,-6913.0,-8449.0,9215.0,0.0,0.0,0.0,0.0,0.0,0.0,0
76f897717d325b35,1551765650039,986,-6913.0,-8449.0,9215.0,0.0,0.0,0.0,0.0,0.0,0.0,0
76f897717d325b35,1551765650040,987,-6913.0,-8449.0,9215.0,0.0,0.0,0.0,0.0,0.0,0.0,0
76f897717d325b35,1551765650069,988,-6913.0,-8449.0,9215.0,0.0,0.0,0.0,0.0,0.0,0.0,0
76f897717d325b35,1551765650130,989,-6913.0,-8449.0,9215.0,0.0,0.0,0.0,0.0,0.0,0.0,0
76f897717d325b35,1551765650249,990,-6913.0,-8449.0,9215.0,0.0,0.0,0.0,0.0,0.0,0.0,0
76f897717d325b35,1551765650279,991,-6913.0,-8449.0,9215.0,0.0,0.0,0.0,0.0,0.0,0.0,0
76f897717d325b35,1551765650339,992,-6913.0,-8449.0,9215.0,0.0,0.0,0.0,0.0,0.0,0.0,0
76f897717d325b35,1551765650340,993,-6913.0,-8449.0,9215.0,0.0,0.0,0.0,0.0,0.0,0.0,0
76f897717d325b35,1551765650430,994,-6913.0,-8449.0,9215.0,0.0,0.0,0.0,0.0,0.0,0.0,0
76f897717d325b35,1551765650459,995,-6913.0,-8449.0,9215.0,0.0,0.0,0.0,0.0,0.0,0.0,0
76f897717d325b35,1551765650549,996,-6913.0,-8449.0,9215.0,0.0,0.0,0.0,0.0,0.0,0.0,0
76f897717d325b35,1551765650609,997,-6913.0,-8449.0,9215.0,0.0,0.0,0.0,0.0,0.0,0.0,0
76f897717d325b35,1551765650819,998,-6913.0,-8449.0,9215.0,0.0,0.0,0.0,0.0,0.0,0.0,0
76f897717d325b35,1551765650879,999,-6913.0,-8449.0,9215.0,0.0,0.0,0.0,0.0,0.0,0.0,0
76f897717d325b35,1551765650880,1000,-6913.0,-8449.0,9215.0,0.0,0.0,0.0,0.0,0.0,0.0,0
76f897717d325b35,1551765650881,1001,-6913.0,-8449.0,9215.0,0.0,0.0,0.0,0.0,0.0,0.0,0
76f897717d325b35,1551765650969,1002,-6913.0,-8449.0,9215.0,0.0,0.0,0.0,0.0,0.0,0.0,0
76f897717d325b35,1551765650970,1003,-6913.0,-8449.0,9215.0,0.0,0.0,0.0,0.0,0.0,0.0,0
76f897717d325b35,1551765651059,1004,-6913.0,-8449.0,9215.0,0.0,0.0,0.0,0.0,0.0,0.0,0
76f897717d325b35,1551765651060,1005,-6913.0,-8449.0,9215.0,0.0,0.0,0.0,0.0,0.0,0.0,0
76f897717d325b35,1551765651061,1006,-6913.0,-8449.0,9215.0,0.0,0.0,0.0,0.0,0.0,0.0,0
76f897717d325b35,1551765651208,1007,-6913.0,-8449.0,9215.0,0.0,0.0,0.0,0.0,0.0,0.0,0
76f897717d325b35,1551765651210,1008,-6913.0,-8449.0,9215.0,0.0,0.0,0.0,0.0,0.0,0.0,0
76f897717d325b35,1551765651299,1009,-6913.0,-8449.0,9215.0,0.0,0.0,0.0,0.0,0.0,0.0,0
76f897717d325b35,1551765651358,1010,-6913.0,-8449.0,9215.0,0.0,0.0,0.0,0.0,0.0,0.0,0
76f897717d325b35,1551765651360,1011,-6913.0,-8449.0,9215.0,0.0,0.0,0.0,0.0,0.0,0.0,0
76f897717d325b35,1551765651419,1012,-6913.0,-8449.0,9215.0,0.0,0.0,0.0,0.0,0.0,0.0,0
76f897717d325b35,1551765651510,1013,-6913.0,-8449.0,9215.0,0.0,0.0,0.0,0.0,0.0,0.0,0
76f897717d325b35,1551765651569,1014,-6913.0,-8449.0,9215.0,0.0,0.0,0.0,0.0,0.0,0.0,0
76f897717d325b35,1551765651599,1015,-6913.0,-8449.0,9215.0,0.0,0.0,0.0,0.0,0.0,0.0,0
76f897717d325b35,1551765651839,1016,-6913.0,-8449.0,9215.0,0.0,0.0,0.0,0.0,0.0,0.0,0
76f897717d325b35,1551765651840,1017,-6913.0,-8449.0,9215.0,0.0,0.0,0.0,0.0,0.0,0.0,0
76f897717d325b35,1551765651841,1018,-6913.0,-8449.0,9215.0,0.0,0.0,0.0,0.0,0.0,0.0,0
76f897717d325b35,1551765651843,1019,-6913.0,-8449.0,9215.0,0.0,0.0,0.0,0.0,0.0,0.0,0
76f897717d325b35,1551765651869,1020,-6913.0,-8449.0,9215.0,0.0,0.0,0.0,0.0,0.0,0.0,0
76f897717d325b35,1551765651988,1021,-6913.0,-8449.0,9215.0,0.0,0.0,0.0,0.0,0.0,0.0,0
76f897717d325b35,1551765651990,1022,-6913.0,-8449.0,9215.0,0.0,0.0,0.0,0.0,0.0,0.0,0
76f897717d325b35,1551765652169,1023,-6913.0,-8449.0,9215.0,0.0,0.0,0.0,0.0,0.0,0.0,0
76f897717d325b35,1551765652170,1024,-6913.0,-8449.0,9215.0,0.0,0.0,0.0,0.0,0.0,0.0,0
76f897717d325b35,1551765652199,1025,-6913.0,-8449.0,9215.0,0.0,0.0,0.0,0.0,0.0,0.0,0
76f897717d325b35,1551765652289,1026,-6913.0,-8449.0,9215.0,0.0,0.0,0.0,0.0,0.0,0.0,0
76f897717d325b35,1551765652319,1027,-6913.0,-8449.0,9215.0,0.0,0.0,0.0,0.0,0.0,0.0,0
76f897717d325b35,1551765652409,1028,-6913.0,-8449.0,9215.0,0.0,0.0,0.0,0.0,0.0,0.0,0
76f897717d325b35,1551765652499,1029,-6913.0,-8449.0,9215.0,0.0,0.0,0.0,0.0,0.0,0.0,0
76f897717d325b35,1551765652529,1030,-6913.0,-8449.0,9215.0,0.0,0.0,0.0,0.0,0.0,0.0,0
76f897717d325b35,1551765652649,1031,-6913.0,-8449.0,9215.0,0.0,0.0,0.0,0.0,0.0,0.0,0
76f897717d325b35,1551765652650,1032,-6913.0,-8449.0,9215.0,0.0,0.0,0.0,0.0,0.0,0.0,0
76f897717d325b35,1551765652651,1033,-6913.0,-8449.0,9215.0,0.0,0.0,0.0,0.0,0.0,0.0,0
76f897717d325b35,1551765652798,1034,-6913.0,-8449.0,9215.0,0.0,0.0,0.0,0.0,0.0,0.0,0
76f897717d325b35,1551765652800,1035,-6913.0,-8449.0,9215.0,0.0,0.0,0.0,0.0,0.0,0.0,0
76f897717d325b35,1551765653099,1036,-6913.0,-8449.0,9215.0,0.0,0.0,0.0,0.0,0.0,0.0,0
76f897717d325b35,1551765653100,1037,-6913.0,-8449.0,9215.0,0.0,0.0,0.0,0.0,0.0,0.0,0
76f897717d325b35,1551765653101,1038,-6913.0,-8449.0,9215.0,0.0,0.0,0.0,0.0,0.0,0.0,0
76f897717d325b35,1551765653102,1039,-6913.0,-8449.0,9215.0,0.0,0.0,0.0,0.0,0.0,0.0,0
76f897717d325b35,1551765653103,1040,-6913.0,-8449.0,9215.0,0.0,0.0,0.0,0.0,0.0,0.0,0
76f897717d325b35,1551765653104,1041,-6913.0,-8449.0,9215.0,0.0,0.0,0.0,0.0,0.0,0.0,0
76f897717d325b35,1551765653248,1042,-6913.0,-8449.0,9215.0,0.0,0.0,0.0,0.0,0.0,0.0,0
76f897717d325b35,1551765653250,1043,-6913.0,-8449.0,9215.0,0.0,0.0,0.0,0.0,0.0,0.0,0
76f897717d325b35,1551765653309,1044,-6913.0,-8449.0,9215.0,0.0,0.0,0.0,0.0,0.0,0.0,0
76f897717d325b35,1551765653310,1045,-6913.0,-8449.0,9215.0,0.0,0.0,0.0,0.0,0.0,0.0,0
76f897717d325b35,1551765653369,1046,-6913.0,-8449.0,9215.0,0.0,0.0,0.0,0.0,0.0,0.0,0
76f897717d325b35,1551765653460,1047,-6913.0,-8449.0,9215.0,0.0,0.0,0.0,0.0,0.0,0.0,0
76f897717d325b35,1551765653608,1048,-6913.0,-8449.0,9215.0,0.0,0.0,0.0,0.0,0.0,0.0,0
76f897717d325b35,1551765653610,1049,-6913.0,-8449.0,9215.0,0.0,0.0,0.0,0.0,0.0,0.0,0
76f897717d325b35,1551765653849,1050,-6913.0,-8449.0,9215.0,0.0,0.0,0.0,0.0,0.0,0.0,0
76f897717d325b35,1551765653850,1051,-6913.0,-8449.0,9215.0,0.0,0.0,0.0,0.0,0.0,0.0,0
76f897717d325b35,1551765653851,1052,-6913.0,-8449.0,9215.0,0.0,0.0,0.0,0.0,0.0,0.0,0
76f897717d325b35,1551765653908,1053,-6913.0,-8449.0,9215.0,0.0,0.0,0.0,0.0,0.0,0.0,0
76f897717d325b35,1551765664848,1054,-7169.0,-8449.0,9215.0,0.0,0.0,0.0,0.0,0.0,0.0,0
76f897717d325b35,1551765664850,1055,-6913.0,-8449.0,9215.0,0.0,0.0,0.0,0.0,0.0,0.0,0
76f897717d325b35,1551765664851,1056,-7169.0,-8449.0,9215.0,0.0,0.0,0.0,0.0,0.0,0.0,0
76f897717d325b35,1551765664939,1057,-7169.0,-8449.0,9215.0,0.0,0.0,0.0,0.0,0.0,0.0,0
76f897717d325b35,1551765665148,1058,-7169.0,-8449.0,9215.0,0.0,0.0,0.0,0.0,0.0,0.0,0
76f897717d325b35,1551765665150,1059,-6913.0,-8449.0,9215.0,0.0,0.0,0.0,0.0,0.0,0.0,0
76f897717d325b35,1551765665151,1060,-6913.0,-8449.0,9215.0,0.0,0.0,0.0,0.0,0.0,0.0,0
76f897717d325b35,1551765665179,1061,-6913.0,-8449.0,9215.0,0.0,0.0,0.0,0.0,0.0,0.0,0
76f897717d325b35,1551765665269,1062,-7169.0,-8449.0,9215.0,0.0,0.0,0.0,0.0,0.0,0.0,0
76f897717d325b35,1551765665329,1063,-6913.0,-8449.0,9215.0,0.0,0.0,0.0,0.0,0.0,0.0,0
76f897717d325b35,1551765665389,1064,-7169.0,-8449.0,9215.0,0.0,0.0,0.0,0.0,0.0,0.0,0
76f897717d325b35,1551765665449,1065,-6913.0,-8449.0,9215.0,0.0,0.0,0.0,0.0,0.0,0.0,0
76f897717d325b35,1551765665508,1066,-7169.0,-8449.0,9215.0,0.0,0.0,0.0,0.0,0.0,0.0,0
76f897717d325b35,1551765665510,1067,-7169.0,-8449.0,9215.0,0.0,0.0,0.0,0.0,0.0,0.0,0
76f897717d325b35,1551765665598,1068,-7169.0,-8449.0,9215.0,0.0,0.0,0.0,0.0,0.0,0.0,0
76f897717d325b35,1551765665659,1069,-6913.0,-8449.0,9215.0,0.0,0.0,0.0,0.0,0.0,0.0,0
76f897717d325b35,1551765665719,1070,-7169.0,-8449.0,9215.0,0.0,0.0,0.0,0.0,0.0,0.0,0
76f897717d325b35,1551765665838,1071,-7169.0,-8449.0,9215.0,0.0,0.0,0.0,0.0,0.0,0.0,0
76f897717d325b35,1551765665839,1072,-7169.0,-8449.0,9215.0,0.0,0.0,0.0,0.0,0.0,0.0,0
76f897717d325b35,1551765665929,1073,-6913.0,-8449.0,9215.0,0.0,0.0,0.0,0.0,0.0,0.0,0
76f897717d325b35,1551765666048,1074,-7169.0,-8193.0,9215.0,0.0,0.0,0.0,0.0,0.0,0.0,0
76f897717d325b35,1551765666049,1075,-7169.0,-8449.0,9215.0,0.0,0.0,0.0,0.0,0.0,0.0,0
76f897717d325b35,1551765666139,1076,-6913.0,-8449.0,9215.0,0.0,0.0,0.0,0.0,0.0,0.0,0
76f897717d325b35,1551765666198,1077,-6913.0,-8449.0,8959.0,0.0,0.0,0.0,0.0,0.0,0.0,0
76f897717d325b35,1551765666199,1078,-6913.0,-8449.0,8959.0,0.0,0.0,0.0,0.0,0.0,0.0,0
76f897717d325b35,1551765666259,1079,-6913.0,-8449.0,9215.0,0.0,0.0,0.0,0.0,0.0,0.0,0
76f897717d325b35,1551765666319,1080,-6913.0,-8449.0,9215.0,0.0,0.0,0.0,0.0,0.0,0.0,0
76f897717d325b35,1551765666409,1081,-7169.0,-8449.0,9215.0,0.0,0.0,0.0,0.0,0.0,0.0,0
76f897717d325b35,1551765666469,1082,-6913.0,-8449.0,9215.0,0.0,0.0,0.0,0.0,0.0,0.0,0
76f897717d325b35,1551765666499,1083,-6913.0,-8449.0,9215.0,0.0,0.0,0.0,0.0,0.0,0.0,0
76f897717d325b35,1551765666589,1084,-6913.0,-8449.0,9215.0,0.0,0.0,0.0,0.0,0.0,0.0,0
76f897717d325b35,1551765666649,1085,-7169.0,-8449.0,9215.0,0.0,0.0,0.0,0.0,0.0,0.0,0
76f897717d325b35,1551765666709,1086,-6913.0,-8449.0,9215.0,0.0,0.0,0.0,0.0,0.0,0.0,0
76f897717d325b35,1551765666769,1087,-6913.0,-8449.0,9215.0,0.0,0.0,0.0,0.0,0.0,0.0,0
76f897717d325b35,1551765666828,1088,-6913.0,-8449.0,9215.0,0.0,0.0,0.0,0.0,0.0,0.0,0
76f897717d325b35,1551765666830,1089,-6913.0,-8449.0,9215.0,0.0,0.0,0.0,0.0,0.0,0.0,0
76f897717d325b35,1551765666919,1090,-6913.0,-8449.0,9215.0,0.0,0.0,0.0,0.0,0.0,0.0,0
76f897717d325b35,1551765666979,1091,-6913.0,-8449.0,9215.0,0.0,0.0,0.0,0.0,0.0,0.0,0
76f897717d325b35,1551765667069,1092,-6913.0,-8449.0,9215.0,0.0,0.0,0.0,0.0,0.0,0.0,0
76f897717d325b35,1551765667158,1093,-6913.0,-8449.0,9215.0,0.0,0.0,0.0,0.0,0.0,0.0,0
76f897717d325b35,1551765667159,1094,-6913.0,-8449.0,9215.0,0.0,0.0,0.0,0.0,0.0,0.0,0
76f897717d325b35,1551765667248,1095,-6913.0,-8449.0,9215.0,0.0,0.0,0.0,0.0,0.0,0.0,0
76f897717d325b35,1551765667249,1096,-6913.0,-8449.0,9215.0,0.0,0.0,0.0,0.0,0.0,0.0,0
76f897717d325b35,1551765667309,1097,-6913.0,-8449.0,9215.0,0.0,0.0,0.0,0.0,0.0,0.0,0
76f897717d325b35,1551765667399,1098,-6913.0,-8449.0,9215.0,0.0,0.0,0.0,0.0,0.0,0.0,0
76f897717d325b35,1551765667458,1099,-6913.0,-8449.0,9215.0,0.0,0.0,0.0,0.0,0.0,0.0,0
76f897717d325b35,1551765667548,1100,-6913.0,-8449.0,9215.0,0.0,0.0,0.0,0.0,0.0,0.0,0
76f897717d325b35,1551765667550,1101,-6913.0,-8449.0,9215.0,0.0,0.0,0.0,0.0,0.0,0.0,0
76f897717d325b35,1551765667638,1102,-6913.0,-8449.0,9215.0,0.0,0.0,0.0,0.0,0.0,0.0,0
76f897717d325b35,1551765667640,1103,-6913.0,-8449.0,9215.0,0.0,0.0,0.0,0.0,0.0,0.0,0
76f897717d325b35,1551765667758,1104,-6913.0,-8449.0,9215.0,0.0,0.0,0.0,0.0,0.0,0.0,0
76f897717d325b35,1551765667759,1105,-6913.0,-8449.0,9215.0,0.0,0.0,0.0,0.0,0.0,0.0,0
76f897717d325b35,1551765667879,1106,-6913.0,-8449.0,9215.0,0.0,0.0,0.0,0.0,0.0,0.0,0
76f897717d325b35,1551765667880,1107,-6913.0,-8449.0,9215.0,0.0,0.0,0.0,0.0,0.0,0.0,0
76f897717d325b35,1551765667939,1108,-6913.0,-8449.0,9215.0,0.0,0.0,0.0,0.0,0.0,0.0,0
76f897717d325b35,1551765668058,1109,-6913.0,-8449.0,9215.0,0.0,0.0,0.0,0.0,0.0,0.0,0
76f897717d325b35,1551765668059,1110,-6913.0,-8449.0,9215.0,0.0,0.0,0.0,0.0,0.0,0.0,0
76f897717d325b35,1551765668119,1111,-6913.0,-8449.0,9215.0,0.0,0.0,0.0,0.0,0.0,0.0,0
76f897717d325b35,1551765668149,1112,-6913.0,-8449.0,9215.0,0.0,0.0,0.0,0.0,0.0,0.0,0
76f897717d325b35,1551765668239,1113,-6913.0,-8449.0,9215.0,0.0,0.0,0.0,0.0,0.0,0.0,0
76f897717d325b35,1551765668299,1114,-6913.0,-8449.0,9215.0,0.0,0.0,0.0,0.0,0.0,0.0,0
76f897717d325b35,1551765668478,1115,-6913.0,-8449.0,9215.0,0.0,0.0,0.0,0.0,0.0,0.0,0
76f897717d325b35,1551765668479,1116,-6913.0,-8449.0,9215.0,0.0,0.0,0.0,0.0,0.0,0.0,0
76f897717d325b35,1551765668480,1117,-6913.0,-8449.0,9215.0,0.0,0.0,0.0,0.0,0.0,0.0,0
76f897717d325b35,1551765668569,1118,-6913.0,-8449.0,9215.0,0.0,0.0,0.0,0.0,0.0,0.0,0
76f897717d325b35,1551765668629,1119,-6913.0,-8449.0,9215.0,0.0,0.0,0.0,0.0,0.0,0.0,0
76f897717d325b35,1551765668778,1120,-6913.0,-8449.0,9215.0,0.0,0.0,0.0,0.0,0.0,0.0,0
76f897717d325b35,1551765668779,1121,-6913.0,-8449.0,9215.0,0.0,0.0,0.0,0.0,0.0,0.0,0
76f897717d325b35,1551765668809,1122,-6913.0,-8449.0,9215.0,0.0,0.0,0.0,0.0,0.0,0.0,0
76f897717d325b35,1551765668899,1123,-6913.0,-8449.0,9215.0,0.0,0.0,0.0,0.0,0.0,0.0,0
76f897717d325b35,1551765668989,1124,-6913.0,-8449.0,9215.0,0.0,0.0,0.0,0.0,0.0,0.0,0
76f897717d325b35,1551765669049,1125,-6913.0,-8449.0,9215.0,0.0,0.0,0.0,0.0,0.0,0.0,0
76f897717d325b35,1551765669079,1126,-6913.0,-8449.0,9215.0,0.0,0.0,0.0,0.0,0.0,0.0,0
76f897717d325b35,1551765669139,1127,-6913.0,-8449.0,9215.0,0.0,0.0,0.0,0.0,0.0,0.0,0
76f897717d325b35,1551765669229,1128,-6913.0,-8449.0,9215.0,0.0,0.0,0.0,0.0,0.0,0.0,0
76f897717d325b35,1551765669319,1129,-6913.0,-8449.0,9215.0,0.0,0.0,0.0,0.0,0.0,0.0,0
76f897717d325b35,1551765669379,1130,-6913.0,-8449.0,9215.0,0.0,0.0,0.0,0.0,0.0,0.0,0
76f897717d325b35,1551765669409,1131,-6913.0,-8449.0,9215.0,0.0,0.0,0.0,0.0,0.0,0.0,0
76f897717d325b35,1551765669499,1132,-7169.0,-8449.0,9215.0,0.0,0.0,0.0,0.0,0.0,0.0,0
76f897717d325b35,1551765669738,1133,-6913.0,-8449.0,9215.0,0.0,0.0,0.0,0.0,0.0,0.0,0
76f897717d325b35,1551765669859,1134,-6913.0,-8449.0,9215.0,0.0,0.0,0.0,0.0,0.0,0.0,0
76f897717d325b35,1551765669861,1135,-6913.0,-8449.0,9215.0,0.0,0.0,0.0,0.0,0.0,0.0,0
76f897717d325b35,1551765669862,1136,-6913.0,-8449.0,9215.0,0.0,0.0,0.0,0.0,0.0,0.0,0
76f897717d325b35,1551765669863,1137,-6913.0,-8449.0,9215.0,0.0,0.0,0.0,0.0,0.0,0.0,0
76f897717d325b35,1551765669888,1138,-6913.0,-8449.0,9215.0,0.0,0.0,0.0,0.0,0.0,0.0,0
76f897717d325b35,1551765670008,1139,-7169.0,-8449.0,9215.0,0.0,0.0,0.0,0.0,0.0,0.0,0
76f897717d325b35,1551765670068,1140,-6913.0,-8449.0,9215.0,0.0,0.0,0.0,0.0,0.0,0.0,0
76f897717d325b35,1551765670069,1141,-6913.0,-8449.0,9215.0,0.0,0.0,0.0,0.0,0.0,0.0,0
76f897717d325b35,1551765670129,1142,-6913.0,-8449.0,9215.0,0.0,0.0,0.0,0.0,0.0,0.0,0
76f897717d325b35,1551765670219,1143,-7169.0,-8449.0,9215.0,0.0,0.0,0.0,0.0,0.0,0.0,0
76f897717d325b35,1551765670698,1144,-6913.0,-8449.0,9215.0,0.0,0.0,0.0,0.0,0.0,0.0,0
76f897717d325b35,1551765670788,1145,-6913.0,-8449.0,9215.0,0.0,0.0,0.0,0.0,0.0,0.0,0
76f897717d325b35,1551765670818,1146,-6913.0,-8449.0,9215.0,0.0,0.0,0.0,0.0,0.0,0.0,0
76f897717d325b35,1551765670938,1147,-6913.0,-8449.0,9215.0,0.0,0.0,0.0,0.0,0.0,0.0,0
76f897717d325b35,1551765670939,1148,-6913.0,-8449.0,9215.0,0.0,0.0,0.0,0.0,0.0,0.0,0
76f897717d325b35,1551765670940,1149,-6913.0,-8449.0,9215.0,0.0,0.0,0.0,0.0,0.0,0.0,0
76f897717d325b35,1551765670968,1150,-6913.0,-8449.0,9215.0,0.0,0.0,0.0,0.0,0.0,0.0,0
76f897717d325b35,1551765670969,1151,-6913.0,-8449.0,9215.0,0.0,0.0,0.0,0.0,0.0,0.0,0
76f897717d325b35,1551765671058,1152,-6913.0,-8449.0,9215.0,0.0,0.0,0.0,0.0,0.0,0.0,0
76f897717d325b35,1551765671238,1153,-6913.0,-8449.0,9215.0,0.0,0.0,0.0,0.0,0.0,0.0,0
76f897717d325b35,1551765671448,1154,-6913.0,-8449.0,9215.0,0.0,0.0,0.0,0.0,0.0,0.0,0
76f897717d325b35,1551765671449,1155,-6913.0,-8449.0,9215.0,0.0,0.0,0.0,0.0,0.0,0.0,0
76f897717d325b35,1551765671658,1156,-6913.0,-8449.0,9215.0,0.0,0.0,0.0,0.0,0.0,0.0,0
76f897717d325b35,1551765671748,1157,-6913.0,-8449.0,9215.0,0.0,0.0,0.0,0.0,0.0,0.0,0
76f897717d325b35,1551765671750,1158,-6913.0,-8449.0,9215.0,0.0,0.0,0.0,0.0,0.0,0.0,0
76f897717d325b35,1551765671751,1159,-6913.0,-8449.0,9215.0,0.0,0.0,0.0,0.0,0.0,0.0,0
76f897717d325b35,1551765671752,1160,-7169.0,-8449.0,9215.0,0.0,0.0,0.0,0.0,0.0,0.0,0
76f897717d325b35,1551765671808,1161,-6913.0,-8449.0,9215.0,0.0,0.0,0.0,0.0,0.0,0.0,0
76f897717d325b35,1551765671809,1162,-6913.0,-8449.0,9215.0,0.0,0.0,0.0,0.0,0.0,0.0,0
76f897717d325b35,1551765671810,1163,-7169.0,-8449.0,9215.0,0.0,0.0,0.0,0.0,0.0,0.0,0
76f897717d325b35,1551765671812,1164,-6913.0,-8449.0,9215.0,0.0,0.0,0.0,0.0,0.0,0.0,0
76f897717d325b35,1551765671899,1165,-6913.0,-8449.0,9215.0,0.0,0.0,0.0,0.0,0.0,0.0,0
76f897717d325b35,1551765671929,1166,-6913.0,-8449.0,9215.0,0.0,0.0,0.0,0.0,0.0,0.0,0
76f897717d325b35,1551765672019,1167,-6913.0,-8449.0,9215.0,0.0,0.0,0.0,0.0,0.0,0.0,0
76f897717d325b35,1551765672079,1168,-6913.0,-8449.0,9215.0,0.0,0.0,0.0,0.0,0.0,0.0,0
76f897717d325b35,1551765672109,1169,-6913.0,-8449.0,9215.0,0.0,0.0,0.0,0.0,0.0,0.0,0
76f897717d325b35,1551765672408,1170,-6913.0,-8449.0,9215.0,0.0,0.0,0.0,0.0,0.0,0.0,0
76f897717d325b35,1551765672409,1171,-6913.0,-8449.0,9215.0,0.0,0.0,0.0,0.0,0.0,0.0,0
76f897717d325b35,1551765672410,1172,-6913.0,-8449.0,9215.0,0.0,0.0,0.0,0.0,0.0,0.0,0
76f897717d325b35,1551765672411,1173,-6913.0,-8449.0,9215.0,0.0,0.0,0.0,0.0,0.0,0.0,0
76f897717d325b35,1551765672528,1174,-6913.0,-8449.0,9215.0,0.0,0.0,0.0,0.0,0.0,0.0,0
76f897717d325b35,1551765672529,1175,-6913.0,-8449.0,9215.0,0.0,0.0,0.0,0.0,0.0,0.0,0
76f897717d325b35,1551765672739,1176,-6913.0,-8449.0,9215.0,0.0,0.0,0.0,0.0,0.0,0.0,0
76f897717d325b35,1551765672740,1177,-6913.0,-8449.0,9215.0,0.0,0.0,0.0,0.0,0.0,0.0,0
76f897717d325b35,1551765672741,1178,-6913.0,-8449.0,9215.0,0.0,0.0,0.0,0.0,0.0,0.0,0
76f897717d325b35,1551765672769,1179,-6913.0,-8449.0,9215.0,0.0,0.0,0.0,0.0,0.0,0.0,0
76f897717d325b35,1551765672858,1180,-7169.0,-8449.0,9215.0,0.0,0.0,0.0,0.0,0.0,0.0,0
76f897717d325b35,1551765673038,1181,-6913.0,-8449.0,9215.0,0.0,0.0,0.0,0.0,0.0,0.0,0
76f897717d325b35,1551765673039,1182,-6913.0,-8449.0,9215.0,0.0,0.0,0.0,0.0,0.0,0.0,0
76f897717d325b35,1551765673040,1183,-6913.0,-8449.0,9215.0,0.0,0.0,0.0,0.0,0.0,0.0,0
76f897717d325b35,1551765673099,1184,-6913.0,-8449.0,9215.0,0.0,0.0,0.0,0.0,0.0,0.0,0
76f897717d325b35,1551765673548,1185,-6913.0,-8449.0,9215.0,0.0,0.0,0.0,0.0,0.0,0.0,0
76f897717d325b35,1551765674118,1186,-7169.0,-8449.0,9215.0,0.0,0.0,0.0,0.0,0.0,0.0,0
76f897717d325b35,1551765674119,1187,-6913.0,-8449.0,9215.0,0.0,0.0,0.0,0.0,0.0,0.0,0
76f897717d325b35,1551765674538,1188,-6913.0,-8449.0,9215.0,0.0,0.0,0.0,0.0,0.0,0.0,0
76f897717d325b35,1551765674540,1189,-6913.0,-8449.0,9215.0,0.0,0.0,0.0,0.0,0.0,0.0,0
76f897717d325b35,1551765674541,1190,-6913.0,-8449.0,9215.0,0.0,0.0,0.0,0.0,0.0,0.0,0
76f897717d325b35,1551765674542,1191,-6913.0,-8449.0,9215.0,0.0,0.0,0.0,0.0,0.0,0.0,0
76f897717d325b35,1551765674543,1192,-6913.0,-8449.0,9215.0,0.0,0.0,0.0,0.0,0.0,0.0,0
76f897717d325b35,1551765674544,1193,-6913.0,-8449.0,9215.0,0.0,0.0,0.0,0.0,0.0,0.0,0
76f897717d325b35,1551765674545,1194,-6913.0,-8449.0,9215.0,0.0,0.0,0.0,0.0,0.0,0.0,0
76f897717d325b35,1551765674658,1195,-6913.0,-8449.0,9215.0,0.0,0.0,0.0,0.0,0.0,0.0,0
76f897717d325b35,1551765674659,1196,-6913.0,-8449.0,9215.0,0.0,0.0,0.0,0.0,0.0,0.0,0
76f897717d325b35,1551765674778,1197,-6913.0,-8449.0,9215.0,0.0,0.0,0.0,0.0,0.0,0.0,0
76f897717d325b35,1551765674779,1198,-6913.0,-8449.0,9215.0,0.0,0.0,0.0,0.0,0.0,0.0,0
76f897717d325b35,1551765674839,1199,-6913.0,-8449.0,9215.0,0.0,0.0,0.0,0.0,0.0,0.0,0
76f897717d325b35,1551765674899,1200,-6913.0,-8449.0,9215.0,0.0,0.0,0.0,0.0,0.0,0.0,0
76f897717d325b35,1551765674958,1201,-7169.0,-8449.0,9215.0,0.0,0.0,0.0,0.0,0.0,0.0,0
76f897717d325b35,1551765675138,1202,-7169.0,-8449.0,9215.0,0.0,0.0,0.0,0.0,0.0,0.0,0
76f897717d325b35,1551765675228,1203,-6913.0,-8449.0,9215.0,0.0,0.0,0.0,0.0,0.0,0.0,0
76f897717d325b35,1551765675229,1204,-6913.0,-8449.0,9215.0,0.0,0.0,0.0,0.0,0.0,0.0,0
76f897717d325b35,1551765675230,1205,-6913.0,-8449.0,9215.0,0.0,0.0,0.0,0.0,0.0,0.0,0
76f897717d325b35,1551765675289,1206,-6913.0,-8449.0,9215.0,0.0,0.0,0.0,0.0,0.0,0.0,0
76f897717d325b35,1551765675349,1207,-7169.0,-8449.0,9215.0,0.0,0.0,0.0,0.0,0.0,0.0,0
76f897717d325b35,1551765675439,1208,-7169.0,-8449.0,9215.0,0.0,0.0,0.0,0.0,0.0,0.0,0
76f897717d325b35,1551765675499,1209,-6913.0,-8449.0,9215.0,0.0,0.0,0.0,0.0,0.0,0.0,0
76f897717d325b35,1551765675738,1210,-6913.0,-8449.0,9215.0,0.0,0.0,0.0,0.0,0.0,0.0,0
76f897717d325b35,1551765675768,1211,-7169.0,-8449.0,9215.0,0.0,0.0,0.0,0.0,0.0,0.0,0
76f897717d325b35,1551765675769,1212,-7169.0,-8449.0,9215.0,0.0,0.0,0.0,0.0,0.0,0.0,0
76f897717d325b35,1551765675770,1213,-6913.0,-8449.0,9215.0,0.0,0.0,0.0,0.0,0.0,0.0,0
76f897717d325b35,1551765675829,1214,-6913.0,-8449.0,9215.0,0.0,0.0,0.0,0.0,0.0,0.0,0
76f897717d325b35,1551765675889,1215,-6913.0,-8449.0,9215.0,0.0,0.0,0.0,0.0,0.0,0.0,0
76f897717d325b35,1551765675949,1216,-6913.0,-8449.0,9215.0,0.0,0.0,0.0,0.0,0.0,0.0,0
76f897717d325b35,1551765676009,1217,-6913.0,-8449.0,9215.0,0.0,0.0,0.0,0.0,0.0,0.0,0
76f897717d325b35,1551765676069,1218,-6913.0,-8449.0,9215.0,0.0,0.0,0.0,0.0,0.0,0.0,0
76f897717d325b35,1551765676158,1219,-7169.0,-8449.0,9215.0,0.0,0.0,0.0,0.0,0.0,0.0,0
76f897717d325b35,1551765676249,1220,-6913.0,-8449.0,9215.0,0.0,0.0,0.0,0.0,0.0,0.0,0
76f897717d325b35,1551765676279,1221,-6913.0,-8449.0,9215.0,0.0,0.0,0.0,0.0,0.0,0.0,0
76f897717d325b35,1551765676369,1222,-6913.0,-8449.0,9215.0,0.0,0.0,0.0,0.0,0.0,0.0,0
76f897717d325b35,1551765676458,1223,-6913.0,-8449.0,9215.0,0.0,0.0,0.0,0.0,0.0,0.0,0
76f897717d325b35,1551765676489,1224,-6913.0,-8449.0,9215.0,0.0,0.0,0.0,0.0,0.0,0.0,0
76f897717d325b35,1551765676548,1225,-6913.0,-8449.0,9215.0,0.0,0.0,0.0,0.0,0.0,0.0,0
76f897717d325b35,1551765676609,1226,-6913.0,-8449.0,9215.0,0.0,0.0,0.0,0.0,0.0,0.0,0
76f897717d325b35,1551765676668,1227,-6913.0,-8449.0,9215.0,0.0,0.0,0.0,0.0,0.0,0.0,0
76f897717d325b35,1551765676729,1228,-6913.0,-8449.0,9215.0,0.0,0.0,0.0,0.0,0.0,0.0,0
76f897717d325b35,1551765676819,1229,-6913.0,-8449.0,9215.0,0.0,0.0,0.0,0.0,0.0,0.0,0
76f897717d325b35,1551765676938,1230,-6913.0,-8449.0,9215.0,0.0,0.0,0.0,0.0,0.0,0.0,0
76f897717d325b35,1551765676940,1231,-6913.0,-8449.0,9215.0,0.0,0.0,0.0,0.0,0.0,0.0,0
76f897717d325b35,1551765682863,1232,-7169.0,-8193.0,9215.0,0.0,0.0,0.0,0.0,0.0,0.0,0
76f897717d325b35,1551765682864,1233,-7169.0,-8193.0,9215.0,0.0,0.0,0.0,0.0,0.0,0.0,0
76f897717d325b35,1551765682953,1234,-7169.0,-8193.0,9215.0,0.0,0.0,0.0,0.0,0.0,0.0,0
76f897717d325b35,1551765683732,1235,-7169.0,-8193.0,9215.0,0.0,0.0,0.0,0.0,0.0,0.0,0
76f897717d325b35,1551765683763,1236,-7169.0,-8193.0,9215.0,0.0,0.0,0.0,0.0,0.0,0.0,0
76f897717d325b35,1551765683764,1237,-7169.0,-8193.0,9215.0,0.0,0.0,0.0,0.0,0.0,0.0,0
76f897717d325b35,1551765683765,1238,-7169.0,-8193.0,9215.0,0.0,0.0,0.0,0.0,0.0,0.0,0
76f897717d325b35,1551765683766,1239,-6913.0,-7937.0,8959.0,0.0,0.0,0.0,0.0,0.0,0.0,0
76f897717d325b35,1551765683882,1240,-8449.0,-8449.0,8959.0,0.0,0.0,0.0,0.0,0.0,0.0,0
76f897717d325b35,1551765684183,1241,-6657.0,-8193.0,8959.0,0.0,0.0,0.0,0.0,0.0,0.0,0
76f897717d325b35,1551765684184,1242,-7681.0,-8193.0,9215.0,0.0,0.0,0.0,0.0,0.0,0.0,0
76f897717d325b35,1551765684185,1243,-7169.0,-8193.0,9215.0,0.0,0.0,0.0,0.0,0.0,0.0,0
76f897717d325b35,1551765684186,1244,-7169.0,-8193.0,9215.0,0.0,0.0,0.0,0.0,0.0,0.0,0
76f897717d325b35,1551765684242,1245,-7169.0,-8193.0,9471.0,0.0,0.0,0.0,0.0,0.0,0.0,0
76f897717d325b35,1551765684272,1246,-7169.0,-8449.0,9215.0,0.0,0.0,0.0,0.0,0.0,0.0,0
76f897717d325b35,1551765684302,1247,-6913.0,-8193.0,9471.0,0.0,0.0,0.0,0.0,0.0,0.0,0
76f897717d325b35,1551765684304,1248,-7169.0,-8193.0,9471.0,0.0,0.0,0.0,0.0,0.0,0.0,0
76f897717d325b35,1551765684333,1249,-7169.0,-8193.0,9471.0,0.0,0.0,0.0,0.0,0.0,0.0,0
76f897717d325b35,1551765684363,1250,-7169.0,-8449.0,9471.0,0.0,0.0,0.0,0.0,0.0,0.0,0
76f897717d325b35,1551765684452,1251,-6657.0,-8705.0,9471.0,0.0,0.0,0.0,0.0,0.0,0.0,0
76f897717d325b35,1551765684454,1252,-6657.0,-8705.0,9471.0,0.0,0.0,0.0,0.0,0.0,0.0,0
76f897717d325b35,1551765684484,1253,-6657.0,-8449.0,9727.0,0.0,0.0,0.0,0.0,0.0,0.0,0
76f897717d325b35,1551765684544,1254,-7169.0,-8449.0,9727.0,0.0,0.0,0.0,0.0,0.0,0.0,0
76f897717d325b35,1551765684692,1255,-7425.0,-8193.0,9727.0,0.0,0.0,0.0,0.0,0.0,0.0,0
76f897717d325b35,1551765684694,1256,-7425.0,-8193.0,9727.0,0.0,0.0,0.0,0.0,0.0,0.0,0
76f897717d325b35,1551765685893,1257,-6913.0,-8449.0,9983.0,0.0,0.0,0.0,0.0,0.0,0.0,0
76f897717d325b35,1551765685894,1258,-6913.0,-8449.0,9727.0,0.0,0.0,0.0,0.0,0.0,0.0,0
76f897717d325b35,1551765685922,1259,-6657.0,-8193.0,9215.0,0.0,0.0,0.0,0.0,0.0,0.0,0
76f897717d325b35,1551765685924,1260,-7169.0,-8449.0,9215.0,0.0,0.0,0.0,0.0,0.0,0.0,0
76f897717d325b35,1551765685925,1261,-6913.0,-8449.0,8703.0,0.0,0.0,0.0,0.0,0.0,0.0,0
76f897717d325b35,1551765685927,1262,-6913.0,-8193.0,8703.0,0.0,0.0,0.0,0.0,0.0,0.0,0
76f897717d325b35,1551765685928,1263,-6657.0,-8449.0,8703.0,0.0,0.0,0.0,0.0,0.0,0.0,0
76f897717d325b35,1551765685983,1264,-6913.0,-8193.0,9471.0,0.0,0.0,0.0,0.0,0.0,0.0,0
76f897717d325b35,1551765686043,1265,-6913.0,-8449.0,9471.0,0.0,0.0,0.0,0.0,0.0,0.0,0
76f897717d325b35,1551765686073,1266,-6913.0,-8193.0,9215.0,0.0,0.0,0.0,0.0,0.0,0.0,0
76f897717d325b35,1551765686133,1267,-6401.0,-8449.0,8703.0,0.0,0.0,0.0,0.0,0.0,0.0,0
76f897717d325b35,1551765686252,1268,-7425.0,-8193.0,8191.0,0.0,0.0,0.0,0.0,0.0,0.0,0
76f897717d325b35,1551765686254,1269,-7681.0,-8193.0,8447.0,0.0,0.0,0.0,0.0,0.0,0.0,0
76f897717d325b35,1551765686373,1270,-6913.0,-8705.0,8447.0,0.0,0.0,0.0,0.0,0.0,0.0,0
76f897717d325b35,1551765686403,1271,-6401.0,-8449.0,8959.0,0.0,0.0,0.0,0.0,0.0,0.0,0
76f897717d325b35,1551765686493,1272,-6913.0,-8193.0,8703.0,0.0,0.0,0.0,0.0,0.0,0.0,0
76f897717d325b35,1551765686523,1273,-7681.0,-8193.0,8703.0,0.0,0.0,0.0,0.0,0.0,0.0,0
76f897717d325b35,1551765686614,1274,-6145.0,-8961.0,8959.0,0.0,0.0,0.0,0.0,0.0,0.0,0
76f897717d325b35,1551765686733,1275,-5889.0,-8705.0,9215.0,0.0,0.0,0.0,0.0,0.0,0.0,0
76f897717d325b35,1551765687212,1276,-7425.0,-8449.0,8447.0,0.0,0.0,0.0,0.0,0.0,0.0,0
76f897717d325b35,1551765687214,1277,-6913.0,-8193.0,9215.0,0.0,0.0,0.0,0.0,0.0,0.0,0
76f897717d325b35,1551765687216,1278,-6913.0,-8705.0,9471.0,0.0,0.0,0.0,0.0,0.0,0.0,0
76f897717d325b35,1551765687217,1279,-6913.0,-8193.0,9471.0,0.0,0.0,0.0,0.0,0.0,0.0,0
76f897717d325b35,1551765687218,1280,-6657.0,-8705.0,9727.0,0.0,0.0,0.0,0.0,0.0,0.0,0
76f897717d325b35,1551765687219,1281,-6913.0,-8193.0,9727.0,0.0,0.0,0.0,0.0,0.0,0.0,0
76f897717d325b35,1551765687220,1282,-6913.0,-8449.0,9471.0,0.0,0.0,0.0,0.0,0.0,0.0,0
76f897717d325b35,1551765687303,1283,-6657.0,-8193.0,9215.0,0.0,0.0,0.0,0.0,0.0,0.0,0
76f897717d325b35,1551765687512,1284,-6657.0,-8705.0,8959.0,0.0,0.0,0.0,0.0,0.0,0.0,0
76f897717d325b35,1551765687572,1285,-6145.0,-8705.0,8959.0,0.0,0.0,0.0,0.0,0.0,0.0,0
76f897717d325b35,1551765687603,1286,-6657.0,-8449.0,8703.0,0.0,0.0,0.0,0.0,0.0,0.0,0
76f897717d325b35,1551765687605,1287,-7425.0,-7937.0,8447.0,0.0,0.0,0.0,0.0,0.0,0.0,0
76f897717d325b35,1551765687606,1288,-6657.0,-8449.0,8191.0,0.0,0.0,0.0,0.0,0.0,0.0,0
76f897717d325b35,1551765687663,1289,-6401.0,-8193.0,8447.0,0.0,0.0,0.0,0.0,0.0,0.0,0
76f897717d325b35,1551765687723,1290,-6913.0,-8705.0,8447.0,0.0,0.0,0.0,0.0,0.0,0.0,0
76f897717d325b35,1551765687813,1291,-6913.0,-7937.0,8447.0,0.0,0.0,0.0,0.0,0.0,0.0,0
76f897717d325b35,1551765687844,1292,-6913.0,-7425.0,8959.0,0.0,0.0,0.0,0.0,0.0,0.0,0
76f897717d325b35,1551765688023,1293,-6657.0,-9473.0,8703.0,0.0,0.0,0.0,0.0,0.0,0.0,0
76f897717d325b35,1551765688024,1294,-6401.0,-8961.0,8703.0,0.0,0.0,0.0,0.0,0.0,0.0,0
76f897717d325b35,1551765688053,1295,-6913.0,-7937.0,8703.0,0.0,0.0,0.0,0.0,0.0,0.0,0
76f897717d325b35,1551765688113,1296,-7169.0,-8449.0,8703.0,0.0,0.0,0.0,0.0,0.0,0.0,0
76f897717d325b35,1551765688203,1297,-6401.0,-7937.0,8959.0,0.0,0.0,0.0,0.0,0.0,0.0,0
76f897717d325b35,1551765688294,1298,-6657.0,-8193.0,8959.0,0.0,0.0,0.0,0.0,0.0,0.0,0
76f897717d325b35,1551765688353,1299,-6401.0,-8449.0,8959.0,0.0,0.0,0.0,0.0,0.0,0.0,0
76f897717d325b35,1551765688472,1300,-6657.0,-8449.0,8447.0,0.0,0.0,0.0,0.0,0.0,0.0,0
76f897717d325b35,1551765688474,1301,-7425.0,-8705.0,7935.0,0.0,0.0,0.0,0.0,0.0,0.0,0
76f897717d325b35,1551765688592,1302,-6657.0,-7937.0,8191.0,0.0,0.0,0.0,0.0,0.0,0.0,0
76f897717d325b35,1551765688623,1303,-6401.0,-9217.0,7679.0,0.0,0.0,0.0,0.0,0.0,0.0,0
76f897717d325b35,1551765688772,1304,-5889.0,-7681.0,7679.0,0.0,0.0,0.0,0.0,0.0,0.0,0
76f897717d325b35,1551765688774,1305,-6657.0,-8705.0,7423.0,0.0,0.0,0.0,0.0,0.0,0.0,0
76f897717d325b35,1551765688893,1306,-6145.0,-8193.0,7167.0,0.0,0.0,0.0,0.0,0.0,0.0,0
76f897717d325b35,1551765688894,1307,-6145.0,-8193.0,7423.0,0.0,0.0,0.0,0.0,0.0,0.0,0
76f897717d325b35,1551765688953,1308,-5889.0,-7937.0,6911.0,0.0,0.0,0.0,0.0,0.0,0.0,0
76f897717d325b35,1551765688983,1309,-6145.0,-8193.0,6911.0,0.0,0.0,0.0,0.0,0.0,0.0,0
76f897717d325b35,1551765689042,1310,-6145.0,-8193.0,6655.0,0.0,0.0,0.0,0.0,0.0,0.0,0
76f897717d325b35,1551765689073,1311,-6145.0,-8193.0,6655.0,0.0,0.0,0.0,0.0,0.0,0.0,0
76f897717d325b35,1551765689133,1312,-6145.0,-7937.0,6655.0,0.0,0.0,0.0,0.0,0.0,0.0,0
76f897717d325b35,1551765689163,1313,-5889.0,-7937.0,6655.0,0.0,0.0,0.0,0.0,0.0,0.0,0
76f897717d325b35,1551765689253,1314,-6145.0,-7681.0,6143.0,0.0,0.0,0.0,0.0,0.0,0.0,0
76f897717d325b35,1551765689344,1315,-6145.0,-7681.0,6655.0,0.0,0.0,0.0,0.0,0.0,0.0,0
76f897717d325b35,1551765689372,1316,-5889.0,-7937.0,6143.0,0.0,0.0,0.0,0.0,0.0,0.0,0
76f897717d325b35,1551765689374,1317,-5889.0,-7937.0,6143.0,0.0,0.0,0.0,0.0,0.0,0.0,0
76f897717d325b35,1551765689553,1318,-6401.0,-7681.0,6143.0,0.0,0.0,0.0,0.0,0.0,0.0,0
76f897717d325b35,1551765689555,1319,-6145.0,-7681.0,6143.0,0.0,0.0,0.0,0.0,0.0,0.0,0
76f897717d325b35,1551765689556,1320,-6145.0,-7681.0,6143.0,0.0,0.0,0.0,0.0,0.0,0.0,0
76f897717d325b35,1551765689792,1321,-6401.0,-7425.0,5887.0,0.0,0.0,0.0,0.0,0.0,0.0,0
76f897717d325b35,1551765689794,1322,-6657.0,-7169.0,6143.0,0.0,0.0,0.0,0.0,0.0,0.0,0
76f897717d325b35,1551765689795,1323,-6657.0,-7169.0,5887.0,0.0,0.0,0.0,0.0,0.0,0.0,0
76f897717d325b35,1551765689853,1324,-6657.0,-6913.0,5887.0,0.0,0.0,0.0,0.0,0.0,0.0,0
76f897717d325b35,1551765689883,1325,-6657.0,-6913.0,5887.0,0.0,0.0,0.0,0.0,0.0,0.0,0
76f897717d325b35,1551765690062,1326,-6657.0,-6913.0,5887.0,0.0,0.0,0.0,0.0,0.0,0.0,0
76f897717d325b35,1551765710449,1327,-7937.0,-3585.0,6399.0,0.0,0.0,0.0,0.0,0.0,0.0,0
76f897717d325b35,1551765710451,1328,-7937.0,-3585.0,7167.0,0.0,0.0,0.0,0.0,0.0,0.0,0
76f897717d325b35,1551765710509,1329,-8193.0,-3585.0,5887.0,0.0,0.0,0.0,0.0,0.0,0.0,0
76f897717d325b35,1551765710511,1330,-7937.0,-3585.0,6143.0,0.0,0.0,0.0,0.0,0.0,0.0,0
76f897717d325b35,1551765710629,1331,-7937.0,-3585.0,6655.0,0.0,0.0,0.0,0.0,0.0,0.0,0
76f897717d325b35,1551765710631,1332,-7937.0,-3585.0,6399.0,0.0,0.0,0.0,0.0,0.0,0.0,0
76f897717d325b35,1551765710780,1333,-7937.0,-3585.0,6399.0,0.0,0.0,0.0,0.0,0.0,0.0,0
76f897717d325b35,1551765710781,1334,-8193.0,-3585.0,6143.0,0.0,0.0,0.0,0.0,0.0,0.0,0
76f897717d325b35,1551765710810,1335,-8705.0,-3585.0,6143.0,0.0,0.0,0.0,0.0,0.0,0.0,0
76f897717d325b35,1551765710869,1336,-7681.0,-4097.0,6655.0,0.0,0.0,0.0,0.0,0.0,0.0,0
76f897717d325b35,1551765711049,1337,-9217.0,-4097.0,6655.0,0.0,0.0,0.0,0.0,0.0,0.0,0
76f897717d325b35,1551765711051,1338,-7937.0,-3585.0,6399.0,0.0,0.0,0.0,0.0,0.0,0.0,0
76f897717d325b35,1551765711080,1339,-7937.0,-3585.0,6143.0,0.0,0.0,0.0,0.0,0.0,0.0,0
76f897717d325b35,1551765711170,1340,-7937.0,-3585.0,6399.0,0.0,0.0,0.0,0.0,0.0,0.0,0
76f897717d325b35,1551765711230,1341,-7937.0,-3585.0,6143.0,0.0,0.0,0.0,0.0,0.0,0.0,0
76f897717d325b35,1551765711349,1342,-7937.0,-3585.0,6399.0,0.0,0.0,0.0,0.0,0.0,0.0,0
76f897717d325b35,1551765711351,1343,-7937.0,-3585.0,6399.0,0.0,0.0,0.0,0.0,0.0,0.0,0
76f897717d325b35,1551765711440,1344,-7937.0,-3841.0,6399.0,0.0,0.0,0.0,0.0,0.0,0.0,0
76f897717d325b35,1551765711470,1345,-7937.0,-3841.0,6143.0,0.0,0.0,0.0,0.0,0.0,0.0,0
76f897717d325b35,1551765711530,1346,-7937.0,-3585.0,6143.0,0.0,0.0,0.0,0.0,0.0,0.0,0
76f897717d325b35,1551765711620,1347,-7937.0,-3841.0,6143.0,0.0,0.0,0.0,0.0,0.0,0.0,0
76f897717d325b35,1551765711679,1348,-7937.0,-3841.0,6399.0,0.0,0.0,0.0,0.0,0.0,0.0,0
76f897717d325b35,1551765711859,1349,-7937.0,-3585.0,6143.0,0.0,0.0,0.0,0.0,0.0,0.0,0
76f897717d325b35,1551765711889,1350,-7937.0,-3585.0,6399.0,0.0,0.0,0.0,0.0,0.0,0.0,0
76f897717d325b35,1551765711891,1351,-7937.0,-3585.0,6399.0,0.0,0.0,0.0,0.0,0.0,0.0,0
76f897717d325b35,1551765712039,1352,-7937.0,-3841.0,6143.0,0.0,0.0,0.0,0.0,0.0,0.0,0
76f897717d325b35,1551765712041,1353,-7937.0,-3841.0,6143.0,0.0,0.0,0.0,0.0,0.0,0.0,0
76f897717d325b35,1551765712189,1354,-7937.0,-3585.0,6399.0,0.0,0.0,0.0,0.0,0.0,0.0,0
76f897717d325b35,1551765712219,1355,-7937.0,-3585.0,6399.0,0.0,0.0,0.0,0.0,0.0,0.0,0
76f897717d325b35,1551765712220,1356,-7937.0,-3585.0,6399.0,0.0,0.0,0.0,0.0,0.0,0.0,0
76f897717d325b35,1551765712280,1357,-8193.0,-3585.0,6399.0,0.0,0.0,0.0,0.0,0.0,0.0,0
76f897717d325b35,1551765712340,1358,-7937.0,-3585.0,6399.0,0.0,0.0,0.0,0.0,0.0,0.0,0
76f897717d325b35,1551765712400,1359,-7937.0,-3585.0,6399.0,0.0,0.0,0.0,0.0,0.0,0.0,0
76f897717d325b35,1551765712490,1360,-7937.0,-3841.0,6399.0,0.0,0.0,0.0,0.0,0.0,0.0,0
76f897717d325b35,1551765712520,1361,-7937.0,-3585.0,6399.0,0.0,0.0,0.0,0.0,0.0,0.0,0
76f897717d325b35,1551765712610,1362,-7937.0,-3585.0,6399.0,0.0,0.0,0.0,0.0,0.0,0.0,0
76f897717d325b35,1551765712670,1363,-7937.0,-3585.0,6399.0,0.0,0.0,0.0,0.0,0.0,0.0,0
76f897717d325b35,1551765712730,1364,-7937.0,-3841.0,6399.0,0.0,0.0,0.0,0.0,0.0,0.0,0
76f897717d325b35,1551765712790,1365,-7937.0,-3841.0,6399.0,0.0,0.0,0.0,0.0,0.0,0.0,0
76f897717d325b35,1551765712850,1366,-7937.0,-3841.0,6399.0,0.0,0.0,0.0,0.0,0.0,0.0,0
76f897717d325b35,1551765712970,1367,-7937.0,-3841.0,6399.0,0.0,0.0,0.0,0.0,0.0,0.0,0
76f897717d325b35,1551765713000,1368,-7937.0,-3585.0,6399.0,0.0,0.0,0.0,0.0,0.0,0.0,0
76f897717d325b35,1551765713059,1369,-7937.0,-3585.0,6399.0,0.0,0.0,0.0,0.0,0.0,0.0,0
76f897717d325b35,1551765713120,1370,-7937.0,-3585.0,6399.0,0.0,0.0,0.0,0.0,0.0,0.0,0
76f897717d325b35,1551765713180,1371,-7937.0,-3841.0,6399.0,0.0,0.0,0.0,0.0,0.0,0.0,0
76f897717d325b35,1551765713270,1372,-7937.0,-3841.0,6143.0,0.0,0.0,0.0,0.0,0.0,0.0,0
76f897717d325b35,1551765713330,1373,-7937.0,-3841.0,6399.0,0.0,0.0,0.0,0.0,0.0,0.0,0
76f897717d325b35,1551765713449,1374,-7937.0,-3841.0,6143.0,0.0,0.0,0.0,0.0,0.0,0.0,0
76f897717d325b35,1551765713451,1375,-7937.0,-3585.0,6143.0,0.0,0.0,0.0,0.0,0.0,0.0,0
76f897717d325b35,1551765713540,1376,-7937.0,-3841.0,6399.0,0.0,0.0,0.0,0.0,0.0,0.0,0
76f897717d325b35,1551765713630,1377,-7937.0,-3841.0,6143.0,0.0,0.0,0.0,0.0,0.0,0.0,0
76f897717d325b35,1551765713719,1378,-7937.0,-3841.0,6399.0,0.0,0.0,0.0,0.0,0.0,0.0,0
76f897717d325b35,1551765713720,1379,-7937.0,-3841.0,6399.0,0.0,0.0,0.0,0.0,0.0,0.0,0
76f897717d325b35,1551765713780,1380,-7937.0,-3841.0,6399.0,0.0,0.0,0.0,0.0,0.0,0.0,0
76f897717d325b35,1551765713840,1381,-7937.0,-3585.0,6399.0,0.0,0.0,0.0,0.0,0.0,0.0,0
76f897717d325b35,1551765713930,1382,-7937.0,-3841.0,6399.0,0.0,0.0,0.0,0.0,0.0,0.0,0
76f897717d325b35,1551765714020,1383,-7937.0,-3841.0,6399.0,0.0,0.0,0.0,0.0,0.0,0.0,0
76f897717d325b35,1551765714109,1384,-7937.0,-3841.0,6399.0,0.0,0.0,0.0,0.0,0.0,0.0,0
76f897717d325b35,1551765714111,1385,-7937.0,-3841.0,6399.0,0.0,0.0,0.0,0.0,0.0,0.0,0
76f897717d325b35,1551765714170,1386,-7937.0,-3841.0,6399.0,0.0,0.0,0.0,0.0,0.0,0.0,0
76f897717d325b35,1551765714260,1387,-7937.0,-3585.0,6399.0,0.0,0.0,0.0,0.0,0.0,0.0,0
76f897717d325b35,1551765714320,1388,-7937.0,-3585.0,6399.0,0.0,0.0,0.0,0.0,0.0,0.0,0
76f897717d325b35,1551765714380,1389,-7937.0,-3841.0,6399.0,0.0,0.0,0.0,0.0,0.0,0.0,0
76f897717d325b35,1551765714440,1390,-7937.0,-3841.0,6399.0,0.0,0.0,0.0,0.0,0.0,0.0,0
76f897717d325b35,1551765714530,1391,-7937.0,-3841.0,6399.0,0.0,0.0,0.0,0.0,0.0,0.0,0
76f897717d325b35,1551765714590,1392,-7937.0,-3585.0,6143.0,0.0,0.0,0.0,0.0,0.0,0.0,0
76f897717d325b35,1551765714650,1393,-7937.0,-3841.0,6399.0,0.0,0.0,0.0,0.0,0.0,0.0,0
76f897717d325b35,1551765714710,1394,-7937.0,-3585.0,6399.0,0.0,0.0,0.0,0.0,0.0,0.0,0
76f897717d325b35,1551765714770,1395,-7937.0,-3841.0,6399.0,0.0,0.0,0.0,0.0,0.0,0.0,0
76f897717d325b35,1551765714859,1396,-7937.0,-3585.0,6399.0,0.0,0.0,0.0,0.0,0.0,0.0,0
76f897717d325b35,1551765714979,1397,-7937.0,-3585.0,6399.0,0.0,0.0,0.0,0.0,0.0,0.0,0
76f897717d325b35,1551765714981,1398,-7937.0,-3585.0,6399.0,0.0,0.0,0.0,0.0,0.0,0.0,0
76f897717d325b35,1551765715040,1399,-7937.0,-3585.0,6399.0,0.0,0.0,0.0,0.0,0.0,0.0,0
76f897717d325b35,1551765715100,1400,-7937.0,-3841.0,6399.0,0.0,0.0,0.0,0.0,0.0,0.0,0
76f897717d325b35,1551765715159,1401,-7937.0,-3585.0,6399.0,0.0,0.0,0.0,0.0,0.0,0.0,0
76f897717d325b35,1551765715250,1402,-7937.0,-3585.0,6143.0,0.0,0.0,0.0,0.0,0.0,0.0,0
76f897717d325b35,1551765715309,1403,-7937.0,-3841.0,6399.0,0.0,0.0,0.0,0.0,0.0,0.0,0
76f897717d325b35,1551765715369,1404,-7937.0,-3841.0,6399.0,0.0,0.0,0.0,0.0,0.0,0.0,0
76f897717d325b35,1551765715460,1405,-7937.0,-3585.0,6143.0,0.0,0.0,0.0,0.0,0.0,0.0,0
76f897717d325b35,1551765715490,1406,-7937.0,-3585.0,6143.0,0.0,0.0,0.0,0.0,0.0,0.0,0
76f897717d325b35,1551765715580,1407,-7937.0,-3841.0,6399.0,0.0,0.0,0.0,0.0,0.0,0.0,0
76f897717d325b35,1551765715640,1408,-7937.0,-3841.0,6143.0,0.0,0.0,0.0,0.0,0.0,0.0,0
76f897717d325b35,1551765715700,1409,-7937.0,-3841.0,6143.0,0.0,0.0,0.0,0.0,0.0,0.0,0
76f897717d325b35,1551765715819,1410,-7937.0,-3585.0,6143.0,0.0,0.0,0.0,0.0,0.0,0.0,0
76f897717d325b35,1551765715821,1411,-7937.0,-3585.0,6399.0,0.0,0.0,0.0,0.0,0.0,0.0,0
76f897717d325b35,1551765715940,1412,-7937.0,-3585.0,6399.0,0.0,0.0,0.0,0.0,0.0,0.0,0
76f897717d325b35,1551765715970,1413,-7937.0,-3841.0,6399.0,0.0,0.0,0.0,0.0,0.0,0.0,0
76f897717d325b35,1551765716030,1414,-7937.0,-3841.0,6143.0,0.0,0.0,0.0,0.0,0.0,0.0,0
76f897717d325b35,1551765716090,1415,-7937.0,-3841.0,6399.0,0.0,0.0,0.0,0.0,0.0,0.0,0
76f897717d325b35,1551765716210,1416,-7937.0,-3841.0,6143.0,0.0,0.0,0.0,0.0,0.0,0.0,0
76f897717d325b35,1551765716240,1417,-7937.0,-3841.0,6399.0,0.0,0.0,0.0,0.0,0.0,0.0,0
76f897717d325b35,1551765716299,1418,-7937.0,-3841.0,6143.0,0.0,0.0,0.0,0.0,0.0,0.0,0
