2562-03-05 100322,,,,,,,,,,,,
Start Time,2562/03/05 10:03:22,Timestamp,1551755002108,,,,,,,,,
sensor ID,timestamp (ms),Sample Count,acc_x,acc_y,acc_z,gyro_x,gyro_y,gyro_z,mag_x,mag_y,mag_z,mark
76f897717d325b35,1551755002140,0,,,,,,,,,,0
76f897717d325b35,1551755002140,0,-6657.0,-8449.0,9727.0,0.0,0.0,0.0,0.0,0.0,0.0,0
76f897717d325b35,1551755002166,1,-6657.0,-8449.0,9471.0,0.0,0.0,0.0,0.0,0.0,0.0,0
76f897717d325b35,1551755002196,2,-6657.0,-8449.0,9471.0,0.0,0.0,0.0,0.0,0.0,0.0,0
76f897717d325b35,1551755002256,3,-6657.0,-8449.0,9471.0,0.0,0.0,0.0,0.0,0.0,0.0,0
76f897717d325b35,1551755002316,4,-6657.0,-8449.0,9471.0,0.0,0.0,0.0,0.0,0.0,0.0,0
76f897717d325b35,1551755002376,5,-6657.0,-8449.0,9471.0,0.0,0.0,0.0,0.0,0.0,0.0,0
76f897717d325b35,1551755002466,6,-6657.0,-8449.0,9727.0,0.0,0.0,0.0,0.0,0.0,0.0,0
76f897717d325b35,1551755002556,7,-6657.0,-8449.0,9471.0,0.0,0.0,0.0,0.0,0.0,0.0,0
76f897717d325b35,1551755002586,8,-6657.0,-8449.0,9471.0,0.0,0.0,0.0,0.0,0.0,0.0,0
76f897717d325b35,1551755002646,9,-6657.0,-8449.0,9471.0,0.0,0.0,0.0,0.0,0.0,0.0,0
76f897717d325b35,1551755002706,10,-6657.0,-8449.0,9471.0,0.0,0.0,0.0,0.0,0.0,0.0,0
76f897717d325b35,1551755002796,11,-6657.0,-8449.0,9471.0,0.0,0.0,0.0,0.0,0.0,0.0,0
76f897717d325b35,1551755002856,12,-6657.0,-8449.0,9471.0,0.0,0.0,0.0,0.0,0.0,0.0,0
76f897717d325b35,1551755002916,13,-6657.0,-8449.0,9471.0,0.0,0.0,0.0,0.0,0.0,0.0,0
76f897717d325b35,1551755002977,14,-6657.0,-8449.0,9471.0,0.0,0.0,0.0,0.0,0.0,0.0,0
76f897717d325b35,1551755003037,15,-6657.0,-8449.0,9727.0,0.0,0.0,0.0,0.0,0.0,0.0,0
76f897717d325b35,1551755003126,16,-6657.0,-8449.0,9471.0,0.0,0.0,0.0,0.0,0.0,0.0,0
76f897717d325b35,1551755003216,17,-6657.0,-8449.0,9471.0,0.0,0.0,0.0,0.0,0.0,0.0,0
76f897717d325b35,1551755003277,18,-6657.0,-8449.0,9471.0,0.0,0.0,0.0,0.0,0.0,0.0,0
76f897717d325b35,1551755003306,19,-6657.0,-8449.0,9471.0,0.0,0.0,0.0,0.0,0.0,0.0,0
76f897717d325b35,1551755003367,20,-6657.0,-8449.0,9471.0,0.0,0.0,0.0,0.0,0.0,0.0,0
76f897717d325b35,1551755003486,21,-6657.0,-8449.0,9471.0,0.0,0.0,0.0,0.0,0.0,0.0,0
76f897717d325b35,1551755003516,22,-6657.0,-8449.0,9727.0,0.0,0.0,0.0,0.0,0.0,0.0,0
76f897717d325b35,1551755003576,23,-6657.0,-8449.0,9471.0,0.0,0.0,0.0,0.0,0.0,0.0,0
76f897717d325b35,1551755003666,24,-6657.0,-8449.0,9727.0,0.0,0.0,0.0,0.0,0.0,0.0,0
76f897717d325b35,1551755003726,25,-6657.0,-8449.0,9471.0,0.0,0.0,0.0,0.0,0.0,0.0,0
76f897717d325b35,1551755003787,26,-6657.0,-8449.0,9471.0,0.0,0.0,0.0,0.0,0.0,0.0,0
76f897717d325b35,1551755003906,27,-6657.0,-8449.0,9471.0,0.0,0.0,0.0,0.0,0.0,0.0,0
76f897717d325b35,1551755003907,28,-6657.0,-8449.0,9471.0,0.0,0.0,0.0,0.0,0.0,0.0,0
76f897717d325b35,1551755003996,29,-6657.0,-8449.0,9727.0,0.0,0.0,0.0,0.0,0.0,0.0,0
76f897717d325b35,1551755004026,30,-6657.0,-8449.0,9471.0,0.0,0.0,0.0,0.0,0.0,0.0,0
76f897717d325b35,1551755004117,31,-6657.0,-8449.0,9727.0,0.0,0.0,0.0,0.0,0.0,0.0,0
76f897717d325b35,1551755004176,32,-6657.0,-8449.0,9471.0,0.0,0.0,0.0,0.0,0.0,0.0,0
76f897717d325b35,1551755004236,33,-6657.0,-8449.0,9471.0,0.0,0.0,0.0,0.0,0.0,0.0,0
76f897717d325b35,1551755004296,34,-6657.0,-8449.0,9471.0,0.0,0.0,0.0,0.0,0.0,0.0,0
76f897717d325b35,1551755004356,35,-6657.0,-8449.0,9471.0,0.0,0.0,0.0,0.0,0.0,0.0,0
76f897717d325b35,1551755004446,36,-6657.0,-8449.0,9727.0,0.0,0.0,0.0,0.0,0.0,0.0,0
76f897717d325b35,1551755004506,37,-6657.0,-8449.0,9471.0,0.0,0.0,0.0,0.0,0.0,0.0,0
76f897717d325b35,1551755004566,38,-6657.0,-8449.0,9727.0,0.0,0.0,0.0,0.0,0.0,0.0,0
76f897717d325b35,1551755004626,39,-6657.0,-8449.0,9471.0,0.0,0.0,0.0,0.0,0.0,0.0,0
76f897717d325b35,1551755004686,40,-6657.0,-8449.0,9471.0,0.0,0.0,0.0,0.0,0.0,0.0,0
76f897717d325b35,1551755004776,41,-6657.0,-8449.0,9471.0,0.0,0.0,0.0,0.0,0.0,0.0,0
76f897717d325b35,1551755004836,42,-6657.0,-8449.0,9471.0,0.0,0.0,0.0,0.0,0.0,0.0,0
76f897717d325b35,1551755004926,43,-6657.0,-8449.0,9727.0,0.0,0.0,0.0,0.0,0.0,0.0,0
76f897717d325b35,1551755004956,44,-6657.0,-8705.0,9471.0,0.0,0.0,0.0,0.0,0.0,0.0,0
76f897717d325b35,1551755005016,45,-6657.0,-8449.0,9471.0,0.0,0.0,0.0,0.0,0.0,0.0,0
76f897717d325b35,1551755005106,46,-6657.0,-8705.0,9471.0,0.0,0.0,0.0,0.0,0.0,0.0,0
76f897717d325b35,1551755005166,47,-6657.0,-8449.0,9471.0,0.0,0.0,0.0,0.0,0.0,0.0,0
76f897717d325b35,1551755005226,48,-6657.0,-8449.0,9727.0,0.0,0.0,0.0,0.0,0.0,0.0,0
76f897717d325b35,1551755005286,49,-6657.0,-8449.0,9471.0,0.0,0.0,0.0,0.0,0.0,0.0,0
76f897717d325b35,1551755005346,50,-6657.0,-8449.0,9727.0,0.0,0.0,0.0,0.0,0.0,0.0,0
76f897717d325b35,1551755005436,51,-6657.0,-8449.0,9471.0,0.0,0.0,0.0,0.0,0.0,0.0,0
76f897717d325b35,1551755005497,52,-6657.0,-8449.0,9471.0,0.0,0.0,0.0,0.0,0.0,0.0,0
76f897717d325b35,1551755005586,53,-6657.0,-8449.0,9727.0,0.0,0.0,0.0,0.0,0.0,0.0,0
76f897717d325b35,1551755005616,54,-6657.0,-8449.0,9471.0,0.0,0.0,0.0,0.0,0.0,0.0,0
76f897717d325b35,1551755005676,55,-6657.0,-8449.0,9471.0,0.0,0.0,0.0,0.0,0.0,0.0,0
76f897717d325b35,1551755005767,56,-6657.0,-8449.0,9471.0,0.0,0.0,0.0,0.0,0.0,0.0,0
76f897717d325b35,1551755005826,57,-6657.0,-8449.0,9471.0,0.0,0.0,0.0,0.0,0.0,0.0,0
76f897717d325b35,1551755005886,58,-6657.0,-8449.0,9471.0,0.0,0.0,0.0,0.0,0.0,0.0,0
76f897717d325b35,1551755005946,59,-6657.0,-8449.0,9471.0,0.0,0.0,0.0,0.0,0.0,0.0,0
76f897717d325b35,1551755006005,60,-6657.0,-8449.0,9471.0,0.0,0.0,0.0,0.0,0.0,0.0,0
76f897717d325b35,1551755006007,61,-6657.0,-8449.0,9471.0,0.0,0.0,0.0,0.0,0.0,0.0,0
76f897717d325b35,1551755006096,62,-6657.0,-8449.0,9471.0,0.0,0.0,0.0,0.0,0.0,0.0,0
76f897717d325b35,1551755006156,63,-6657.0,-8449.0,9727.0,0.0,0.0,0.0,0.0,0.0,0.0,0
76f897717d325b35,1551755006216,64,-6657.0,-8449.0,9471.0,0.0,0.0,0.0,0.0,0.0,0.0,0
76f897717d325b35,1551755006276,65,-6657.0,-8449.0,9471.0,0.0,0.0,0.0,0.0,0.0,0.0,0
76f897717d325b35,1551755006336,66,-6657.0,-8449.0,9471.0,0.0,0.0,0.0,0.0,0.0,0.0,0
76f897717d325b35,1551755006426,67,-6657.0,-8449.0,9471.0,0.0,0.0,0.0,0.0,0.0,0.0,0
76f897717d325b35,1551755006486,68,-6657.0,-8449.0,9727.0,0.0,0.0,0.0,0.0,0.0,0.0,0
76f897717d325b35,1551755006546,69,-6657.0,-8449.0,9471.0,0.0,0.0,0.0,0.0,0.0,0.0,0
76f897717d325b35,1551755006606,70,-6657.0,-8449.0,9471.0,0.0,0.0,0.0,0.0,0.0,0.0,0
76f897717d325b35,1551755006666,71,-6657.0,-8449.0,9471.0,0.0,0.0,0.0,0.0,0.0,0.0,0
76f897717d325b35,1551755006756,72,-6657.0,-8449.0,9727.0,0.0,0.0,0.0,0.0,0.0,0.0,0
76f897717d325b35,1551755006816,73,-6657.0,-8449.0,9727.0,0.0,0.0,0.0,0.0,0.0,0.0,0
76f897717d325b35,1551755006876,74,-6657.0,-8449.0,9471.0,0.0,0.0,0.0,0.0,0.0,0.0,0
76f897717d325b35,1551755006936,75,-6657.0,-8449.0,9471.0,0.0,0.0,0.0,0.0,0.0,0.0,0
76f897717d325b35,1551755006996,76,-6657.0,-8449.0,9727.0,0.0,0.0,0.0,0.0,0.0,0.0,0
76f897717d325b35,1551755007086,77,-6657.0,-8449.0,9471.0,0.0,0.0,0.0,0.0,0.0,0.0,0
76f897717d325b35,1551755007146,78,-6657.0,-8449.0,9727.0,0.0,0.0,0.0,0.0,0.0,0.0,0
76f897717d325b35,1551755007206,79,-6657.0,-8449.0,9471.0,0.0,0.0,0.0,0.0,0.0,0.0,0
76f897717d325b35,1551755007267,80,-6657.0,-8449.0,9727.0,0.0,0.0,0.0,0.0,0.0,0.0,0
76f897717d325b35,1551755007326,81,-6657.0,-8449.0,9727.0,0.0,0.0,0.0,0.0,0.0,0.0,0
76f897717d325b35,1551755007417,82,-6657.0,-8449.0,9727.0,0.0,0.0,0.0,0.0,0.0,0.0,0
76f897717d325b35,1551755007506,83,-6657.0,-8449.0,9471.0,0.0,0.0,0.0,0.0,0.0,0.0,0
76f897717d325b35,1551755007536,84,-6657.0,-8449.0,9727.0,0.0,0.0,0.0,0.0,0.0,0.0,0
76f897717d325b35,1551755007596,85,-6657.0,-8449.0,9727.0,0.0,0.0,0.0,0.0,0.0,0.0,0
76f897717d325b35,1551755007656,86,-6657.0,-8449.0,9727.0,0.0,0.0,0.0,0.0,0.0,0.0,0
76f897717d325b35,1551755007746,87,-6657.0,-8449.0,9727.0,0.0,0.0,0.0,0.0,0.0,0.0,0
76f897717d325b35,1551755007806,88,-6657.0,-8705.0,9727.0,0.0,0.0,0.0,0.0,0.0,0.0,0
76f897717d325b35,1551755007866,89,-6657.0,-8449.0,9727.0,0.0,0.0,0.0,0.0,0.0,0.0,0
76f897717d325b35,1551755007926,90,-6657.0,-8449.0,9727.0,0.0,0.0,0.0,0.0,0.0,0.0,0
76f897717d325b35,1551755007986,91,-6657.0,-8449.0,9471.0,0.0,0.0,0.0,0.0,0.0,0.0,0
76f897717d325b35,1551755008076,92,-6657.0,-8449.0,9727.0,0.0,0.0,0.0,0.0,0.0,0.0,0
76f897717d325b35,1551755008136,93,-6657.0,-8449.0,9727.0,0.0,0.0,0.0,0.0,0.0,0.0,0
76f897717d325b35,1551755008196,94,-6657.0,-8449.0,9471.0,0.0,0.0,0.0,0.0,0.0,0.0,0
76f897717d325b35,1551755008257,95,-6657.0,-8449.0,9727.0,0.0,0.0,0.0,0.0,0.0,0.0,0
76f897717d325b35,1551755008317,96,-6657.0,-8449.0,9727.0,0.0,0.0,0.0,0.0,0.0,0.0,0
76f897717d325b35,1551755008406,97,-6657.0,-8449.0,9727.0,0.0,0.0,0.0,0.0,0.0,0.0,0
76f897717d325b35,1551755008496,98,-6657.0,-8449.0,9471.0,0.0,0.0,0.0,0.0,0.0,0.0,0
76f897717d325b35,1551755008526,99,-6657.0,-8449.0,9727.0,0.0,0.0,0.0,0.0,0.0,0.0,0
76f897717d325b35,1551755008586,100,-6657.0,-8449.0,9727.0,0.0,0.0,0.0,0.0,0.0,0.0,0
76f897717d325b35,1551755008646,101,-6657.0,-8449.0,9727.0,0.0,0.0,0.0,0.0,0.0,0.0,0
76f897717d325b35,1551755008736,102,-6657.0,-8449.0,9471.0,0.0,0.0,0.0,0.0,0.0,0.0,0
76f897717d325b35,1551755008826,103,-6657.0,-8449.0,9727.0,0.0,0.0,0.0,0.0,0.0,0.0,0
76f897717d325b35,1551755008856,104,-6657.0,-8449.0,9727.0,0.0,0.0,0.0,0.0,0.0,0.0,0
76f897717d325b35,1551755008916,105,-6657.0,-8449.0,9727.0,0.0,0.0,0.0,0.0,0.0,0.0,0
76f897717d325b35,1551755008976,106,-6657.0,-8449.0,9727.0,0.0,0.0,0.0,0.0,0.0,0.0,0
76f897717d325b35,1551755009066,107,-6657.0,-8449.0,9727.0,0.0,0.0,0.0,0.0,0.0,0.0,0
76f897717d325b35,1551755009126,108,-6657.0,-8449.0,9727.0,0.0,0.0,0.0,0.0,0.0,0.0,0
76f897717d325b35,1551755009216,109,-6657.0,-8449.0,9471.0,0.0,0.0,0.0,0.0,0.0,0.0,0
76f897717d325b35,1551755009246,110,-6657.0,-8449.0,9727.0,0.0,0.0,0.0,0.0,0.0,0.0,0
76f897717d325b35,1551755009306,111,-6657.0,-8449.0,9727.0,0.0,0.0,0.0,0.0,0.0,0.0,0
76f897717d325b35,1551755009455,112,-6657.0,-8449.0,9727.0,0.0,0.0,0.0,0.0,0.0,0.0,0
76f897717d325b35,1551755009457,113,-6657.0,-8449.0,9727.0,0.0,0.0,0.0,0.0,0.0,0.0,0
76f897717d325b35,1551755009516,114,-6657.0,-8449.0,9727.0,0.0,0.0,0.0,0.0,0.0,0.0,0
76f897717d325b35,1551755009576,115,-6657.0,-8449.0,9727.0,0.0,0.0,0.0,0.0,0.0,0.0,0
76f897717d325b35,1551755009636,116,-6657.0,-8449.0,9727.0,0.0,0.0,0.0,0.0,0.0,0.0,0
76f897717d325b35,1551755009726,117,-6657.0,-8449.0,9727.0,0.0,0.0,0.0,0.0,0.0,0.0,0
76f897717d325b35,1551755009786,118,-6657.0,-8449.0,9727.0,0.0,0.0,0.0,0.0,0.0,0.0,0
76f897717d325b35,1551755009846,119,-6657.0,-8449.0,9727.0,0.0,0.0,0.0,0.0,0.0,0.0,0
76f897717d325b35,1551755009936,120,-6657.0,-8449.0,9727.0,0.0,0.0,0.0,0.0,0.0,0.0,0
76f897717d325b35,1551755009966,121,-6657.0,-8449.0,9471.0,0.0,0.0,0.0,0.0,0.0,0.0,0
76f897717d325b35,1551755010056,122,-6657.0,-8449.0,9727.0,0.0,0.0,0.0,0.0,0.0,0.0,0
76f897717d325b35,1551755010146,123,-6657.0,-8449.0,9727.0,0.0,0.0,0.0,0.0,0.0,0.0,0
76f897717d325b35,1551755010176,124,-6657.0,-8449.0,9727.0,0.0,0.0,0.0,0.0,0.0,0.0,0
76f897717d325b35,1551755010236,125,-6657.0,-8449.0,9471.0,0.0,0.0,0.0,0.0,0.0,0.0,0
76f897717d325b35,1551755010296,126,-6657.0,-8449.0,9727.0,0.0,0.0,0.0,0.0,0.0,0.0,0
76f897717d325b35,1551755010386,127,-6657.0,-8449.0,9727.0,0.0,0.0,0.0,0.0,0.0,0.0,0
76f897717d325b35,1551755010446,128,-6657.0,-8449.0,9727.0,0.0,0.0,0.0,0.0,0.0,0.0,0
76f897717d325b35,1551755010506,129,-6657.0,-8449.0,9727.0,0.0,0.0,0.0,0.0,0.0,0.0,0
76f897717d325b35,1551755010566,130,-6657.0,-8449.0,9727.0,0.0,0.0,0.0,0.0,0.0,0.0,0
76f897717d325b35,1551755010626,131,-6657.0,-8449.0,9727.0,0.0,0.0,0.0,0.0,0.0,0.0,0
76f897717d325b35,1551755010716,132,-6657.0,-8449.0,9727.0,0.0,0.0,0.0,0.0,0.0,0.0,0
76f897717d325b35,1551755010776,133,-6657.0,-8449.0,9727.0,0.0,0.0,0.0,0.0,0.0,0.0,0
76f897717d325b35,1551755010836,134,-6657.0,-8449.0,9727.0,0.0,0.0,0.0,0.0,0.0,0.0,0
76f897717d325b35,1551755010896,135,-6657.0,-8449.0,9727.0,0.0,0.0,0.0,0.0,0.0,0.0,0
76f897717d325b35,1551755010956,136,-6657.0,-8449.0,9727.0,0.0,0.0,0.0,0.0,0.0,0.0,0
76f897717d325b35,1551755011046,137,-6657.0,-8449.0,9727.0,0.0,0.0,0.0,0.0,0.0,0.0,0
76f897717d325b35,1551755011106,138,-6657.0,-8449.0,9727.0,0.0,0.0,0.0,0.0,0.0,0.0,0
76f897717d325b35,1551755011166,139,-6657.0,-8449.0,9727.0,0.0,0.0,0.0,0.0,0.0,0.0,0
76f897717d325b35,1551755011226,140,-6657.0,-8449.0,9727.0,0.0,0.0,0.0,0.0,0.0,0.0,0
76f897717d325b35,1551755011286,141,-6657.0,-8449.0,9727.0,0.0,0.0,0.0,0.0,0.0,0.0,0
76f897717d325b35,1551755011376,142,-6657.0,-8449.0,9727.0,0.0,0.0,0.0,0.0,0.0,0.0,0
76f897717d325b35,1551755011436,143,-6657.0,-8449.0,9471.0,0.0,0.0,0.0,0.0,0.0,0.0,0
76f897717d325b35,1551755011496,144,-6657.0,-8449.0,9727.0,0.0,0.0,0.0,0.0,0.0,0.0,0
76f897717d325b35,1551755011556,145,-6657.0,-8449.0,9727.0,0.0,0.0,0.0,0.0,0.0,0.0,0
76f897717d325b35,1551755011616,146,-6657.0,-8449.0,9727.0,0.0,0.0,0.0,0.0,0.0,0.0,0
76f897717d325b35,1551755011706,147,-6657.0,-8449.0,9471.0,0.0,0.0,0.0,0.0,0.0,0.0,0
76f897717d325b35,1551755011766,148,-6657.0,-8449.0,9727.0,0.0,0.0,0.0,0.0,0.0,0.0,0
76f897717d325b35,1551755011826,149,-6657.0,-8449.0,9727.0,0.0,0.0,0.0,0.0,0.0,0.0,0
76f897717d325b35,1551755011886,150,-6657.0,-8449.0,9727.0,0.0,0.0,0.0,0.0,0.0,0.0,0
76f897717d325b35,1551755011946,151,-6657.0,-8449.0,9727.0,0.0,0.0,0.0,0.0,0.0,0.0,0
76f897717d325b35,1551755012036,152,-6657.0,-8449.0,9727.0,0.0,0.0,0.0,0.0,0.0,0.0,0
76f897717d325b35,1551755012096,153,-6657.0,-8449.0,9471.0,0.0,0.0,0.0,0.0,0.0,0.0,0
76f897717d325b35,1551755012156,154,-6657.0,-8449.0,9471.0,0.0,0.0,0.0,0.0,0.0,0.0,0
76f897717d325b35,1551755012216,155,-6657.0,-8449.0,9727.0,0.0,0.0,0.0,0.0,0.0,0.0,0
76f897717d325b35,1551755012276,156,-6657.0,-8449.0,9471.0,0.0,0.0,0.0,0.0,0.0,0.0,0
76f897717d325b35,1551755012366,157,-6657.0,-8449.0,9727.0,0.0,0.0,0.0,0.0,0.0,0.0,0
76f897717d325b35,1551755012456,158,-6657.0,-8449.0,9727.0,0.0,0.0,0.0,0.0,0.0,0.0,0
76f897717d325b35,1551755012486,159,-6657.0,-8449.0,9471.0,0.0,0.0,0.0,0.0,0.0,0.0,0
76f897717d325b35,1551755012546,160,-6657.0,-8449.0,9727.0,0.0,0.0,0.0,0.0,0.0,0.0,0
76f897717d325b35,1551755012609,161,-6657.0,-8449.0,9727.0,0.0,0.0,0.0,0.0,0.0,0.0,0
76f897717d325b35,1551755012696,162,-6657.0,-8449.0,9727.0,0.0,0.0,0.0,0.0,0.0,0.0,0
76f897717d325b35,1551755012786,163,-6657.0,-8449.0,9727.0,0.0,0.0,0.0,0.0,0.0,0.0,0
76f897717d325b35,1551755012816,164,-6657.0,-8449.0,9727.0,0.0,0.0,0.0,0.0,0.0,0.0,0
76f897717d325b35,1551755012876,165,-6657.0,-8449.0,9471.0,0.0,0.0,0.0,0.0,0.0,0.0,0
76f897717d325b35,1551755012936,166,-6657.0,-8449.0,9471.0,0.0,0.0,0.0,0.0,0.0,0.0,0
76f897717d325b35,1551755013026,167,-6657.0,-8449.0,9727.0,0.0,0.0,0.0,0.0,0.0,0.0,0
76f897717d325b35,1551755013086,168,-6657.0,-8449.0,9727.0,0.0,0.0,0.0,0.0,0.0,0.0,0
76f897717d325b35,1551755013146,169,-6657.0,-8449.0,9471.0,0.0,0.0,0.0,0.0,0.0,0.0,0
76f897717d325b35,1551755013206,170,-6657.0,-8449.0,9727.0,0.0,0.0,0.0,0.0,0.0,0.0,0
76f897717d325b35,1551755013266,171,-6657.0,-8449.0,9727.0,0.0,0.0,0.0,0.0,0.0,0.0,0
76f897717d325b35,1551755013356,172,-6657.0,-8449.0,9727.0,0.0,0.0,0.0,0.0,0.0,0.0,0
76f897717d325b35,1551755013416,173,-6657.0,-8449.0,9727.0,0.0,0.0,0.0,0.0,0.0,0.0,0
76f897717d325b35,1551755013476,174,-6657.0,-8449.0,9727.0,0.0,0.0,0.0,0.0,0.0,0.0,0
76f897717d325b35,1551755013536,175,-6657.0,-8449.0,9471.0,0.0,0.0,0.0,0.0,0.0,0.0,0
76f897717d325b35,1551755013596,176,-6657.0,-8449.0,9727.0,0.0,0.0,0.0,0.0,0.0,0.0,0
76f897717d325b35,1551755013686,177,-6657.0,-8449.0,9471.0,0.0,0.0,0.0,0.0,0.0,0.0,0
76f897717d325b35,1551755013746,178,-6657.0,-8449.0,9727.0,0.0,0.0,0.0,0.0,0.0,0.0,0
76f897717d325b35,1551755013806,179,-6657.0,-8449.0,9727.0,0.0,0.0,0.0,0.0,0.0,0.0,0
76f897717d325b35,1551755013866,180,-6657.0,-8449.0,9727.0,0.0,0.0,0.0,0.0,0.0,0.0,0
76f897717d325b35,1551755013926,181,-6657.0,-8449.0,9727.0,0.0,0.0,0.0,0.0,0.0,0.0,0
76f897717d325b35,1551755014016,182,-6657.0,-8449.0,9727.0,0.0,0.0,0.0,0.0,0.0,0.0,0
76f897717d325b35,1551755014076,183,-6657.0,-8449.0,9727.0,0.0,0.0,0.0,0.0,0.0,0.0,0
76f897717d325b35,1551755014136,184,-6657.0,-8449.0,9727.0,0.0,0.0,0.0,0.0,0.0,0.0,0
76f897717d325b35,1551755014196,185,-6657.0,-8449.0,9727.0,0.0,0.0,0.0,0.0,0.0,0.0,0
76f897717d325b35,1551755014256,186,-6657.0,-8449.0,9727.0,0.0,0.0,0.0,0.0,0.0,0.0,0
76f897717d325b35,1551755014346,187,-6657.0,-8449.0,9727.0,0.0,0.0,0.0,0.0,0.0,0.0,0
76f897717d325b35,1551755014406,188,-6657.0,-8449.0,9727.0,0.0,0.0,0.0,0.0,0.0,0.0,0
76f897717d325b35,1551755014466,189,-6657.0,-8449.0,9727.0,0.0,0.0,0.0,0.0,0.0,0.0,0
76f897717d325b35,1551755014526,190,-6657.0,-8449.0,9727.0,0.0,0.0,0.0,0.0,0.0,0.0,0
76f897717d325b35,1551755014586,191,-6657.0,-8449.0,9727.0,0.0,0.0,0.0,0.0,0.0,0.0,0
76f897717d325b35,1551755014676,192,-6657.0,-8449.0,9727.0,0.0,0.0,0.0,0.0,0.0,0.0,0
76f897717d325b35,1551755014766,193,-6657.0,-8449.0,9471.0,0.0,0.0,0.0,0.0,0.0,0.0,0
76f897717d325b35,1551755014796,194,-6657.0,-8449.0,9727.0,0.0,0.0,0.0,0.0,0.0,0.0,0
76f897717d325b35,1551755014856,195,-6657.0,-8449.0,9727.0,0.0,0.0,0.0,0.0,0.0,0.0,0
76f897717d325b35,1551755014916,196,-6657.0,-8449.0,9727.0,0.0,0.0,0.0,0.0,0.0,0.0,0
76f897717d325b35,1551755015006,197,-6657.0,-8449.0,9727.0,0.0,0.0,0.0,0.0,0.0,0.0,0
76f897717d325b35,1551755015066,198,-6657.0,-8449.0,9727.0,0.0,0.0,0.0,0.0,0.0,0.0,0
76f897717d325b35,1551755015126,199,-6657.0,-8449.0,9727.0,0.0,0.0,0.0,0.0,0.0,0.0,0
76f897717d325b35,1551755015186,200,-6657.0,-8449.0,9471.0,0.0,0.0,0.0,0.0,0.0,0.0,0
76f897717d325b35,1551755015276,201,-6657.0,-8449.0,9727.0,0.0,0.0,0.0,0.0,0.0,0.0,0
76f897717d325b35,1551755015336,202,-6657.0,-8449.0,9727.0,0.0,0.0,0.0,0.0,0.0,0.0,0
76f897717d325b35,1551755015396,203,-6657.0,-8449.0,9727.0,0.0,0.0,0.0,0.0,0.0,0.0,0
76f897717d325b35,1551755015456,204,-6657.0,-8449.0,9727.0,0.0,0.0,0.0,0.0,0.0,0.0,0
76f897717d325b35,1551755015516,205,-6657.0,-8449.0,9727.0,0.0,0.0,0.0,0.0,0.0,0.0,0
76f897717d325b35,1551755015576,206,-6657.0,-8449.0,9727.0,0.0,0.0,0.0,0.0,0.0,0.0,0
76f897717d325b35,1551755015666,207,-6657.0,-8449.0,9727.0,0.0,0.0,0.0,0.0,0.0,0.0,0
76f897717d325b35,1551755015756,208,-6657.0,-8449.0,9727.0,0.0,0.0,0.0,0.0,0.0,0.0,0
76f897717d325b35,1551755015786,209,-6657.0,-8449.0,9727.0,0.0,0.0,0.0,0.0,0.0,0.0,0
76f897717d325b35,1551755015846,210,-6657.0,-8449.0,9727.0,0.0,0.0,0.0,0.0,0.0,0.0,0
76f897717d325b35,1551755015906,211,-6657.0,-8449.0,9727.0,0.0,0.0,0.0,0.0,0.0,0.0,0
76f897717d325b35,1551755015996,212,-6657.0,-8449.0,9727.0,0.0,0.0,0.0,0.0,0.0,0.0,0
76f897717d325b35,1551755016056,213,-6657.0,-8449.0,9727.0,0.0,0.0,0.0,0.0,0.0,0.0,0
76f897717d325b35,1551755016116,214,-6657.0,-8449.0,9727.0,0.0,0.0,0.0,0.0,0.0,0.0,0
76f897717d325b35,1551755016176,215,-6657.0,-8449.0,9727.0,0.0,0.0,0.0,0.0,0.0,0.0,0
76f897717d325b35,1551755016236,216,-6657.0,-8449.0,9727.0,0.0,0.0,0.0,0.0,0.0,0.0,0
76f897717d325b35,1551755016327,217,-6657.0,-8449.0,9727.0,0.0,0.0,0.0,0.0,0.0,0.0,0
76f897717d325b35,1551755016386,218,-6657.0,-8449.0,9727.0,0.0,0.0,0.0,0.0,0.0,0.0,0
76f897717d325b35,1551755016446,219,-6657.0,-8449.0,9727.0,0.0,0.0,0.0,0.0,0.0,0.0,0
76f897717d325b35,1551755016506,220,-6657.0,-8449.0,9727.0,0.0,0.0,0.0,0.0,0.0,0.0,0
76f897717d325b35,1551755016596,221,-6657.0,-8449.0,9727.0,0.0,0.0,0.0,0.0,0.0,0.0,0
76f897717d325b35,1551755016656,222,-6657.0,-8449.0,9727.0,0.0,0.0,0.0,0.0,0.0,0.0,0
76f897717d325b35,1551755016716,223,-6657.0,-8449.0,9727.0,0.0,0.0,0.0,0.0,0.0,0.0,0
76f897717d325b35,1551755016776,224,-6657.0,-8449.0,9471.0,0.0,0.0,0.0,0.0,0.0,0.0,0
76f897717d325b35,1551755016836,225,-6657.0,-8449.0,9727.0,0.0,0.0,0.0,0.0,0.0,0.0,0
76f897717d325b35,1551755016896,226,-6657.0,-8449.0,9727.0,0.0,0.0,0.0,0.0,0.0,0.0,0
76f897717d325b35,1551755016985,227,-6657.0,-8449.0,9727.0,0.0,0.0,0.0,0.0,0.0,0.0,0
76f897717d325b35,1551755017046,228,-6657.0,-8449.0,9727.0,0.0,0.0,0.0,0.0,0.0,0.0,0
76f897717d325b35,1551755017106,229,-6657.0,-8449.0,9471.0,0.0,0.0,0.0,0.0,0.0,0.0,0
76f897717d325b35,1551755017166,230,-6657.0,-8449.0,9727.0,0.0,0.0,0.0,0.0,0.0,0.0,0
76f897717d325b35,1551755017226,231,-6657.0,-8449.0,9727.0,0.0,0.0,0.0,0.0,0.0,0.0,0
76f897717d325b35,1551755017316,232,-6657.0,-8449.0,9727.0,0.0,0.0,0.0,0.0,0.0,0.0,0
76f897717d325b35,1551755017406,233,-6657.0,-8449.0,9727.0,0.0,0.0,0.0,0.0,0.0,0.0,0
76f897717d325b35,1551755017436,234,-6657.0,-8449.0,9727.0,0.0,0.0,0.0,0.0,0.0,0.0,0
76f897717d325b35,1551755017496,235,-6657.0,-8449.0,9471.0,0.0,0.0,0.0,0.0,0.0,0.0,0
76f897717d325b35,1551755017556,236,-6657.0,-8449.0,9727.0,0.0,0.0,0.0,0.0,0.0,0.0,0
76f897717d325b35,1551755017646,237,-6657.0,-8449.0,9471.0,0.0,0.0,0.0,0.0,0.0,0.0,0
76f897717d325b35,1551755017706,238,-6657.0,-8449.0,9471.0,0.0,0.0,0.0,0.0,0.0,0.0,0
76f897717d325b35,1551755017766,239,-6657.0,-8449.0,9727.0,0.0,0.0,0.0,0.0,0.0,0.0,0
76f897717d325b35,1551755017826,240,-6657.0,-8449.0,9471.0,0.0,0.0,0.0,0.0,0.0,0.0,0
76f897717d325b35,1551755017886,241,-6657.0,-8449.0,9727.0,0.0,0.0,0.0,0.0,0.0,0.0,0
76f897717d325b35,1551755017976,242,-6657.0,-8449.0,9727.0,0.0,0.0,0.0,0.0,0.0,0.0,0
76f897717d325b35,1551755018036,243,-6657.0,-8449.0,9727.0,0.0,0.0,0.0,0.0,0.0,0.0,0
76f897717d325b35,1551755018096,244,-6657.0,-8449.0,9727.0,0.0,0.0,0.0,0.0,0.0,0.0,0
76f897717d325b35,1551755018156,245,-6657.0,-8449.0,9727.0,0.0,0.0,0.0,0.0,0.0,0.0,0
76f897717d325b35,1551755018216,246,-6657.0,-8449.0,9727.0,0.0,0.0,0.0,0.0,0.0,0.0,0
76f897717d325b35,1551755018306,247,-6657.0,-8449.0,9727.0,0.0,0.0,0.0,0.0,0.0,0.0,0
76f897717d325b35,1551755018366,248,-6657.0,-8449.0,9727.0,0.0,0.0,0.0,0.0,0.0,0.0,0
76f897717d325b35,1551755018426,249,-6657.0,-8449.0,9727.0,0.0,0.0,0.0,0.0,0.0,0.0,0
76f897717d325b35,1551755018486,250,-6657.0,-8449.0,9727.0,0.0,0.0,0.0,0.0,0.0,0.0,0
76f897717d325b35,1551755018546,251,-6657.0,-8449.0,9727.0,0.0,0.0,0.0,0.0,0.0,0.0,0
76f897717d325b35,1551755018635,252,-6657.0,-8449.0,9727.0,0.0,0.0,0.0,0.0,0.0,0.0,0
76f897717d325b35,1551755018696,253,-6657.0,-8449.0,9727.0,0.0,0.0,0.0,0.0,0.0,0.0,0
76f897717d325b35,1551755018756,254,-6657.0,-8449.0,9471.0,0.0,0.0,0.0,0.0,0.0,0.0,0
76f897717d325b35,1551755018816,255,-6657.0,-8449.0,9727.0,0.0,0.0,0.0,0.0,0.0,0.0,0
76f897717d325b35,1551755018877,256,-6657.0,-8449.0,9727.0,0.0,0.0,0.0,0.0,0.0,0.0,0
76f897717d325b35,1551755018965,257,-6657.0,-8449.0,9727.0,0.0,0.0,0.0,0.0,0.0,0.0,0
76f897717d325b35,1551755019026,258,-6657.0,-8449.0,9471.0,0.0,0.0,0.0,0.0,0.0,0.0,0
76f897717d325b35,1551755019086,259,-6657.0,-8449.0,9727.0,0.0,0.0,0.0,0.0,0.0,0.0,0
76f897717d325b35,1551755019146,260,-6657.0,-8449.0,9471.0,0.0,0.0,0.0,0.0,0.0,0.0,0
76f897717d325b35,1551755019206,261,-6657.0,-8449.0,9727.0,0.0,0.0,0.0,0.0,0.0,0.0,0
76f897717d325b35,1551755019296,262,-6657.0,-8449.0,9471.0,0.0,0.0,0.0,0.0,0.0,0.0,0
76f897717d325b35,1551755019356,263,-6657.0,-8449.0,9727.0,0.0,0.0,0.0,0.0,0.0,0.0,0
76f897717d325b35,1551755019416,264,-6657.0,-8449.0,9727.0,0.0,0.0,0.0,0.0,0.0,0.0,0
76f897717d325b35,1551755019476,265,-6657.0,-8449.0,9471.0,0.0,0.0,0.0,0.0,0.0,0.0,0
76f897717d325b35,1551755019536,266,-6657.0,-8449.0,9727.0,0.0,0.0,0.0,0.0,0.0,0.0,0
76f897717d325b35,1551755019626,267,-6657.0,-8449.0,9471.0,0.0,0.0,0.0,0.0,0.0,0.0,0
76f897717d325b35,1551755019686,268,-6657.0,-8449.0,9471.0,0.0,0.0,0.0,0.0,0.0,0.0,0
76f897717d325b35,1551755019746,269,-6657.0,-8449.0,9727.0,0.0,0.0,0.0,0.0,0.0,0.0,0
76f897717d325b35,1551755019806,270,-6657.0,-8449.0,9727.0,0.0,0.0,0.0,0.0,0.0,0.0,0
76f897717d325b35,1551755019896,271,-6657.0,-8449.0,9471.0,0.0,0.0,0.0,0.0,0.0,0.0,0
76f897717d325b35,1551755019956,272,-6657.0,-8449.0,9471.0,0.0,0.0,0.0,0.0,0.0,0.0,0
76f897717d325b35,1551755020016,273,-6657.0,-8449.0,9727.0,0.0,0.0,0.0,0.0,0.0,0.0,0
76f897717d325b35,1551755020076,274,-6657.0,-8449.0,9471.0,0.0,0.0,0.0,0.0,0.0,0.0,0
76f897717d325b35,1551755020136,275,-6657.0,-8449.0,9727.0,0.0,0.0,0.0,0.0,0.0,0.0,0
76f897717d325b35,1551755020226,276,-6657.0,-8449.0,9727.0,0.0,0.0,0.0,0.0,0.0,0.0,0
76f897717d325b35,1551755020286,277,-6657.0,-8449.0,9727.0,0.0,0.0,0.0,0.0,0.0,0.0,0
76f897717d325b35,1551755020346,278,-6657.0,-8449.0,9471.0,0.0,0.0,0.0,0.0,0.0,0.0,0
76f897717d325b35,1551755020406,279,-6657.0,-8449.0,9727.0,0.0,0.0,0.0,0.0,0.0,0.0,0
76f897717d325b35,1551755020496,280,-6657.0,-8449.0,9727.0,0.0,0.0,0.0,0.0,0.0,0.0,0
76f897717d325b35,1551755020556,281,-6657.0,-8449.0,9471.0,0.0,0.0,0.0,0.0,0.0,0.0,0
76f897717d325b35,1551755020616,282,-6657.0,-8449.0,9727.0,0.0,0.0,0.0,0.0,0.0,0.0,0
76f897717d325b35,1551755020676,283,-6657.0,-8449.0,9471.0,0.0,0.0,0.0,0.0,0.0,0.0,0
76f897717d325b35,1551755020736,284,-6657.0,-8449.0,9727.0,0.0,0.0,0.0,0.0,0.0,0.0,0
76f897717d325b35,1551755020796,285,-6657.0,-8449.0,9471.0,0.0,0.0,0.0,0.0,0.0,0.0,0
76f897717d325b35,1551755020886,286,-6657.0,-8449.0,9471.0,0.0,0.0,0.0,0.0,0.0,0.0,0
76f897717d325b35,1551755020946,287,-6657.0,-8449.0,9471.0,0.0,0.0,0.0,0.0,0.0,0.0,0
76f897717d325b35,1551755021006,288,-6657.0,-8449.0,9471.0,0.0,0.0,0.0,0.0,0.0,0.0,0
76f897717d325b35,1551755021066,289,-6657.0,-8449.0,9471.0,0.0,0.0,0.0,0.0,0.0,0.0,0
76f897717d325b35,1551755021126,290,-6657.0,-8449.0,9471.0,0.0,0.0,0.0,0.0,0.0,0.0,0
76f897717d325b35,1551755021216,291,-6657.0,-8449.0,9471.0,0.0,0.0,0.0,0.0,0.0,0.0,0
76f897717d325b35,1551755021276,292,-6657.0,-8449.0,9471.0,0.0,0.0,0.0,0.0,0.0,0.0,0
76f897717d325b35,1551755021336,293,-6657.0,-8449.0,9471.0,0.0,0.0,0.0,0.0,0.0,0.0,0
76f897717d325b35,1551755021396,294,-6657.0,-8449.0,9471.0,0.0,0.0,0.0,0.0,0.0,0.0,0
76f897717d325b35,1551755021456,295,-6657.0,-8449.0,9471.0,0.0,0.0,0.0,0.0,0.0,0.0,0
76f897717d325b35,1551755021545,296,-6657.0,-8449.0,9471.0,0.0,0.0,0.0,0.0,0.0,0.0,0
76f897717d325b35,1551755021606,297,-6657.0,-8449.0,9471.0,0.0,0.0,0.0,0.0,0.0,0.0,0
76f897717d325b35,1551755021666,298,-6657.0,-8449.0,9727.0,0.0,0.0,0.0,0.0,0.0,0.0,0
76f897717d325b35,1551755021726,299,-6657.0,-8449.0,9471.0,0.0,0.0,0.0,0.0,0.0,0.0,0
76f897717d325b35,1551755021786,300,-6657.0,-8449.0,9471.0,0.0,0.0,0.0,0.0,0.0,0.0,0
76f897717d325b35,1551755021876,301,-6657.0,-8449.0,9471.0,0.0,0.0,0.0,0.0,0.0,0.0,0
76f897717d325b35,1551755021936,302,-6657.0,-8449.0,9727.0,0.0,0.0,0.0,0.0,0.0,0.0,0
76f897717d325b35,1551755021996,303,-6657.0,-8449.0,9471.0,0.0,0.0,0.0,0.0,0.0,0.0,0
76f897717d325b35,1551755022056,304,-6657.0,-8449.0,9727.0,0.0,0.0,0.0,0.0,0.0,0.0,0
76f897717d325b35,1551755022116,305,-6657.0,-8449.0,9471.0,0.0,0.0,0.0,0.0,0.0,0.0,0
76f897717d325b35,1551755022206,306,-6657.0,-8449.0,9471.0,0.0,0.0,0.0,0.0,0.0,0.0,0
76f897717d325b35,1551755022266,307,-6657.0,-8449.0,9727.0,0.0,0.0,0.0,0.0,0.0,0.0,0
76f897717d325b35,1551755022326,308,-6657.0,-8449.0,9471.0,0.0,0.0,0.0,0.0,0.0,0.0,0
76f897717d325b35,1551755022386,309,-6657.0,-8449.0,9471.0,0.0,0.0,0.0,0.0,0.0,0.0,0
76f897717d325b35,1551755022445,310,-6657.0,-8449.0,9727.0,0.0,0.0,0.0,0.0,0.0,0.0,0
76f897717d325b35,1551755022536,311,-6657.0,-8449.0,9727.0,0.0,0.0,0.0,0.0,0.0,0.0,0
76f897717d325b35,1551755022596,312,-6657.0,-8449.0,9471.0,0.0,0.0,0.0,0.0,0.0,0.0,0
76f897717d325b35,1551755022656,313,-6657.0,-8449.0,9727.0,0.0,0.0,0.0,0.0,0.0,0.0,0
76f897717d325b35,1551755022716,314,-6657.0,-8449.0,9727.0,0.0,0.0,0.0,0.0,0.0,0.0,0
76f897717d325b35,1551755022775,315,-6657.0,-8449.0,9727.0,0.0,0.0,0.0,0.0,0.0,0.0,0
76f897717d325b35,1551755022777,316,-6657.0,-8449.0,9727.0,0.0,0.0,0.0,0.0,0.0,0.0,0
76f897717d325b35,1551755022866,317,-6657.0,-8449.0,9727.0,0.0,0.0,0.0,0.0,0.0,0.0,0
76f897717d325b35,1551755022926,318,-6657.0,-8449.0,9471.0,0.0,0.0,0.0,0.0,0.0,0.0,0
76f897717d325b35,1551755022986,319,-6657.0,-8449.0,9471.0,0.0,0.0,0.0,0.0,0.0,0.0,0
76f897717d325b35,1551755023045,320,-6657.0,-8449.0,9727.0,0.0,0.0,0.0,0.0,0.0,0.0,0
76f897717d325b35,1551755023106,321,-6657.0,-8449.0,9727.0,0.0,0.0,0.0,0.0,0.0,0.0,0
76f897717d325b35,1551755023196,322,-6657.0,-8449.0,9471.0,0.0,0.0,0.0,0.0,0.0,0.0,0
76f897717d325b35,1551755023255,323,-6657.0,-8449.0,9471.0,0.0,0.0,0.0,0.0,0.0,0.0,0
76f897717d325b35,1551755023316,324,-6657.0,-8449.0,9727.0,0.0,0.0,0.0,0.0,0.0,0.0,0
76f897717d325b35,1551755023376,325,-6657.0,-8449.0,9471.0,0.0,0.0,0.0,0.0,0.0,0.0,0
76f897717d325b35,1551755023436,326,-6657.0,-8449.0,9471.0,0.0,0.0,0.0,0.0,0.0,0.0,0
76f897717d325b35,1551755023556,327,-6657.0,-8449.0,9727.0,0.0,0.0,0.0,0.0,0.0,0.0,0
76f897717d325b35,1551755023586,328,-6657.0,-8449.0,9727.0,0.0,0.0,0.0,0.0,0.0,0.0,0
76f897717d325b35,1551755023646,329,-6657.0,-8449.0,9727.0,0.0,0.0,0.0,0.0,0.0,0.0,0
76f897717d325b35,1551755023706,330,-6657.0,-8449.0,9471.0,0.0,0.0,0.0,0.0,0.0,0.0,0
76f897717d325b35,1551755023766,331,-6657.0,-8449.0,9727.0,0.0,0.0,0.0,0.0,0.0,0.0,0
76f897717d325b35,1551755023856,332,-6657.0,-8449.0,9727.0,0.0,0.0,0.0,0.0,0.0,0.0,0
76f897717d325b35,1551755023916,333,-6657.0,-8449.0,9471.0,0.0,0.0,0.0,0.0,0.0,0.0,0
76f897717d325b35,1551755023975,334,-6657.0,-8449.0,9471.0,0.0,0.0,0.0,0.0,0.0,0.0,0
76f897717d325b35,1551755024095,335,-6657.0,-8449.0,9727.0,0.0,0.0,0.0,0.0,0.0,0.0,0
76f897717d325b35,1551755024097,336,-6657.0,-8449.0,9471.0,0.0,0.0,0.0,0.0,0.0,0.0,0
76f897717d325b35,1551755024186,337,-6657.0,-8449.0,9471.0,0.0,0.0,0.0,0.0,0.0,0.0,0
76f897717d325b35,1551755024245,338,-6657.0,-8449.0,9471.0,0.0,0.0,0.0,0.0,0.0,0.0,0
76f897717d325b35,1551755024306,339,-6657.0,-8449.0,9727.0,0.0,0.0,0.0,0.0,0.0,0.0,0
76f897717d325b35,1551755024367,340,-6657.0,-8449.0,9727.0,0.0,0.0,0.0,0.0,0.0,0.0,0
76f897717d325b35,1551755024426,341,-6657.0,-8449.0,9471.0,0.0,0.0,0.0,0.0,0.0,0.0,0
76f897717d325b35,1551755024516,342,-6657.0,-8449.0,9727.0,0.0,0.0,0.0,0.0,0.0,0.0,0
76f897717d325b35,1551755024576,343,-6657.0,-8449.0,9471.0,0.0,0.0,0.0,0.0,0.0,0.0,0
76f897717d325b35,1551755024636,344,-6657.0,-8449.0,9471.0,0.0,0.0,0.0,0.0,0.0,0.0,0
76f897717d325b35,1551755024696,345,-6657.0,-8449.0,9471.0,0.0,0.0,0.0,0.0,0.0,0.0,0
76f897717d325b35,1551755024755,346,-6657.0,-8449.0,9471.0,0.0,0.0,0.0,0.0,0.0,0.0,0
76f897717d325b35,1551755024756,347,-6657.0,-8449.0,9471.0,0.0,0.0,0.0,0.0,0.0,0.0,0
76f897717d325b35,1551755024845,348,-6657.0,-8449.0,9727.0,0.0,0.0,0.0,0.0,0.0,0.0,0
76f897717d325b35,1551755024906,349,-6657.0,-8449.0,9727.0,0.0,0.0,0.0,0.0,0.0,0.0,0
76f897717d325b35,1551755024965,350,-6657.0,-8449.0,9727.0,0.0,0.0,0.0,0.0,0.0,0.0,0
76f897717d325b35,1551755025085,351,-6657.0,-8449.0,9727.0,0.0,0.0,0.0,0.0,0.0,0.0,0
76f897717d325b35,1551755025087,352,-6657.0,-8449.0,9727.0,0.0,0.0,0.0,0.0,0.0,0.0,0
76f897717d325b35,1551755025176,353,-6657.0,-8449.0,9471.0,0.0,0.0,0.0,0.0,0.0,0.0,0
76f897717d325b35,1551755025236,354,-6657.0,-8449.0,9727.0,0.0,0.0,0.0,0.0,0.0,0.0,0
76f897717d325b35,1551755025296,355,-6657.0,-8449.0,9471.0,0.0,0.0,0.0,0.0,0.0,0.0,0
76f897717d325b35,1551755025356,356,-6657.0,-8449.0,9471.0,0.0,0.0,0.0,0.0,0.0,0.0,0
76f897717d325b35,1551755025416,357,-6657.0,-8449.0,9471.0,0.0,0.0,0.0,0.0,0.0,0.0,0
76f897717d325b35,1551755025536,358,-6657.0,-8449.0,9471.0,0.0,0.0,0.0,0.0,0.0,0.0,0
76f897717d325b35,1551755025566,359,-6657.0,-8449.0,9471.0,0.0,0.0,0.0,0.0,0.0,0.0,0
76f897717d325b35,1551755025626,360,-6657.0,-8449.0,9727.0,0.0,0.0,0.0,0.0,0.0,0.0,0
76f897717d325b35,1551755025686,361,-6657.0,-8449.0,9471.0,0.0,0.0,0.0,0.0,0.0,0.0,0
76f897717d325b35,1551755025745,362,-6657.0,-8449.0,9727.0,0.0,0.0,0.0,0.0,0.0,0.0,0
76f897717d325b35,1551755025835,363,-6657.0,-8449.0,9471.0,0.0,0.0,0.0,0.0,0.0,0.0,0
76f897717d325b35,1551755025895,364,-6657.0,-8449.0,9471.0,0.0,0.0,0.0,0.0,0.0,0.0,0
76f897717d325b35,1551755025956,365,-6657.0,-8449.0,9471.0,0.0,0.0,0.0,0.0,0.0,0.0,0
76f897717d325b35,1551755026074,366,-6657.0,-8449.0,9471.0,0.0,0.0,0.0,0.0,0.0,0.0,0
76f897717d325b35,1551755026076,367,-6657.0,-8449.0,9471.0,0.0,0.0,0.0,0.0,0.0,0.0,0
76f897717d325b35,1551755026166,368,-6657.0,-8449.0,9471.0,0.0,0.0,0.0,0.0,0.0,0.0,0
76f897717d325b35,1551755026226,369,-6657.0,-8449.0,9471.0,0.0,0.0,0.0,0.0,0.0,0.0,0
76f897717d325b35,1551755026286,370,-6657.0,-8449.0,9471.0,0.0,0.0,0.0,0.0,0.0,0.0,0
76f897717d325b35,1551755026345,371,-6657.0,-8449.0,9471.0,0.0,0.0,0.0,0.0,0.0,0.0,0
76f897717d325b35,1551755026405,372,-6657.0,-8449.0,9471.0,0.0,0.0,0.0,0.0,0.0,0.0,0
76f897717d325b35,1551755026406,373,-6657.0,-8449.0,9471.0,0.0,0.0,0.0,0.0,0.0,0.0,0
76f897717d325b35,1551755026496,374,-6657.0,-8449.0,9471.0,0.0,0.0,0.0,0.0,0.0,0.0,0
76f897717d325b35,1551755026556,375,-6657.0,-8449.0,9471.0,0.0,0.0,0.0,0.0,0.0,0.0,0
76f897717d325b35,1551755026616,376,-6657.0,-8449.0,9471.0,0.0,0.0,0.0,0.0,0.0,0.0,0
76f897717d325b35,1551755026676,377,-6657.0,-8449.0,9471.0,0.0,0.0,0.0,0.0,0.0,0.0,0
76f897717d325b35,1551755026736,378,-6657.0,-8449.0,9471.0,0.0,0.0,0.0,0.0,0.0,0.0,0
76f897717d325b35,1551755026826,379,-6657.0,-8449.0,9471.0,0.0,0.0,0.0,0.0,0.0,0.0,0
76f897717d325b35,1551755026885,380,-6657.0,-8449.0,9471.0,0.0,0.0,0.0,0.0,0.0,0.0,0
76f897717d325b35,1551755026945,381,-6657.0,-8449.0,9471.0,0.0,0.0,0.0,0.0,0.0,0.0,0
76f897717d325b35,1551755027007,382,-6657.0,-8449.0,9471.0,0.0,0.0,0.0,0.0,0.0,0.0,0
76f897717d325b35,1551755027066,383,-6657.0,-8449.0,9471.0,0.0,0.0,0.0,0.0,0.0,0.0,0
76f897717d325b35,1551755027156,384,-6657.0,-8449.0,9727.0,0.0,0.0,0.0,0.0,0.0,0.0,0
76f897717d325b35,1551755027216,385,-6657.0,-8449.0,9471.0,0.0,0.0,0.0,0.0,0.0,0.0,0
76f897717d325b35,1551755027275,386,-6657.0,-8449.0,9727.0,0.0,0.0,0.0,0.0,0.0,0.0,0
76f897717d325b35,1551755027336,387,-6657.0,-8449.0,9471.0,0.0,0.0,0.0,0.0,0.0,0.0,0
76f897717d325b35,1551755027395,388,-6657.0,-8449.0,9727.0,0.0,0.0,0.0,0.0,0.0,0.0,0
76f897717d325b35,1551755027486,389,-6657.0,-8449.0,9471.0,0.0,0.0,0.0,0.0,0.0,0.0,0
76f897717d325b35,1551755027545,390,-6657.0,-8449.0,9471.0,0.0,0.0,0.0,0.0,0.0,0.0,0
76f897717d325b35,1551755027606,391,-6657.0,-8449.0,9727.0,0.0,0.0,0.0,0.0,0.0,0.0,0
76f897717d325b35,1551755027696,392,-6657.0,-8449.0,9471.0,0.0,0.0,0.0,0.0,0.0,0.0,0
76f897717d325b35,1551755027726,393,-6657.0,-8449.0,9727.0,0.0,0.0,0.0,0.0,0.0,0.0,0
76f897717d325b35,1551755027816,394,-6657.0,-8449.0,9471.0,0.0,0.0,0.0,0.0,0.0,0.0,0
76f897717d325b35,1551755027876,395,-6657.0,-8449.0,9471.0,0.0,0.0,0.0,0.0,0.0,0.0,0
76f897717d325b35,1551755027936,396,-6657.0,-8449.0,9727.0,0.0,0.0,0.0,0.0,0.0,0.0,0
76f897717d325b35,1551755027996,397,-6657.0,-8449.0,9471.0,0.0,0.0,0.0,0.0,0.0,0.0,0
76f897717d325b35,1551755028056,398,-6657.0,-8449.0,9471.0,0.0,0.0,0.0,0.0,0.0,0.0,0
76f897717d325b35,1551755028145,399,-6657.0,-8449.0,9727.0,0.0,0.0,0.0,0.0,0.0,0.0,0
76f897717d325b35,1551755028206,400,-6657.0,-8449.0,9471.0,0.0,0.0,0.0,0.0,0.0,0.0,0
76f897717d325b35,1551755028265,401,-6657.0,-8449.0,9727.0,0.0,0.0,0.0,0.0,0.0,0.0,0
76f897717d325b35,1551755028326,402,-6657.0,-8449.0,9471.0,0.0,0.0,0.0,0.0,0.0,0.0,0
76f897717d325b35,1551755028386,403,-6657.0,-8449.0,9727.0,0.0,0.0,0.0,0.0,0.0,0.0,0
76f897717d325b35,1551755028476,404,-6657.0,-8449.0,9471.0,0.0,0.0,0.0,0.0,0.0,0.0,0
76f897717d325b35,1551755028535,405,-6657.0,-8449.0,9471.0,0.0,0.0,0.0,0.0,0.0,0.0,0
76f897717d325b35,1551755028596,406,-6657.0,-8449.0,9727.0,0.0,0.0,0.0,0.0,0.0,0.0,0
76f897717d325b35,1551755028656,407,-6657.0,-8449.0,9471.0,0.0,0.0,0.0,0.0,0.0,0.0,0
76f897717d325b35,1551755028716,408,-6657.0,-8449.0,9727.0,0.0,0.0,0.0,0.0,0.0,0.0,0
76f897717d325b35,1551755028806,409,-6657.0,-8449.0,9471.0,0.0,0.0,0.0,0.0,0.0,0.0,0
76f897717d325b35,1551755028866,410,-6657.0,-8449.0,9727.0,0.0,0.0,0.0,0.0,0.0,0.0,0
76f897717d325b35,1551755028926,411,-6657.0,-8449.0,9471.0,0.0,0.0,0.0,0.0,0.0,0.0,0
76f897717d325b35,1551755028986,412,-6657.0,-8449.0,9471.0,0.0,0.0,0.0,0.0,0.0,0.0,0
76f897717d325b35,1551755029045,413,-6657.0,-8449.0,9471.0,0.0,0.0,0.0,0.0,0.0,0.0,0
76f897717d325b35,1551755029136,414,-6657.0,-8449.0,9471.0,0.0,0.0,0.0,0.0,0.0,0.0,0
76f897717d325b35,1551755029196,415,-6657.0,-8449.0,9471.0,0.0,0.0,0.0,0.0,0.0,0.0,0
76f897717d325b35,1551755029256,416,-6657.0,-8449.0,9727.0,0.0,0.0,0.0,0.0,0.0,0.0,0
76f897717d325b35,1551755029316,417,-6657.0,-8449.0,9471.0,0.0,0.0,0.0,0.0,0.0,0.0,0
76f897717d325b35,1551755029376,418,-6657.0,-8449.0,9471.0,0.0,0.0,0.0,0.0,0.0,0.0,0
76f897717d325b35,1551755029466,419,-6657.0,-8449.0,9471.0,0.0,0.0,0.0,0.0,0.0,0.0,0
76f897717d325b35,1551755029525,420,-6657.0,-8449.0,9471.0,0.0,0.0,0.0,0.0,0.0,0.0,0
76f897717d325b35,1551755029586,421,-6657.0,-8449.0,9471.0,0.0,0.0,0.0,0.0,0.0,0.0,0
76f897717d325b35,1551755029645,422,-6657.0,-8449.0,9471.0,0.0,0.0,0.0,0.0,0.0,0.0,0
76f897717d325b35,1551755029706,423,-6657.0,-8449.0,9471.0,0.0,0.0,0.0,0.0,0.0,0.0,0
76f897717d325b35,1551755029796,424,-6657.0,-8449.0,9471.0,0.0,0.0,0.0,0.0,0.0,0.0,0
76f897717d325b35,1551755029856,425,-6657.0,-8449.0,9727.0,0.0,0.0,0.0,0.0,0.0,0.0,0
76f897717d325b35,1551755029916,426,-6657.0,-8449.0,9471.0,0.0,0.0,0.0,0.0,0.0,0.0,0
76f897717d325b35,1551755029976,427,-6657.0,-8449.0,9727.0,0.0,0.0,0.0,0.0,0.0,0.0,0
76f897717d325b35,1551755030035,428,-6657.0,-8449.0,9471.0,0.0,0.0,0.0,0.0,0.0,0.0,0
76f897717d325b35,1551755030036,429,-6657.0,-8449.0,9471.0,0.0,0.0,0.0,0.0,0.0,0.0,0
76f897717d325b35,1551755030126,430,-6657.0,-8705.0,9471.0,0.0,0.0,0.0,0.0,0.0,0.0,0
76f897717d325b35,1551755030186,431,-6657.0,-8449.0,9471.0,0.0,0.0,0.0,0.0,0.0,0.0,0
76f897717d325b35,1551755030245,432,-6657.0,-8449.0,9727.0,0.0,0.0,0.0,0.0,0.0,0.0,0
76f897717d325b35,1551755030306,433,-6657.0,-8449.0,9727.0,0.0,0.0,0.0,0.0,0.0,0.0,0
76f897717d325b35,1551755030365,434,-6657.0,-8449.0,9471.0,0.0,0.0,0.0,0.0,0.0,0.0,0
76f897717d325b35,1551755030367,435,-6657.0,-8449.0,9471.0,0.0,0.0,0.0,0.0,0.0,0.0,0
76f897717d325b35,1551755030456,436,-6657.0,-8449.0,9727.0,0.0,0.0,0.0,0.0,0.0,0.0,0
76f897717d325b35,1551755030515,437,-6657.0,-8449.0,9727.0,0.0,0.0,0.0,0.0,0.0,0.0,0
76f897717d325b35,1551755030576,438,-6657.0,-8449.0,9471.0,0.0,0.0,0.0,0.0,0.0,0.0,0
76f897717d325b35,1551755030636,439,-6657.0,-8449.0,9727.0,0.0,0.0,0.0,0.0,0.0,0.0,0
76f897717d325b35,1551755030696,440,-6657.0,-8449.0,9727.0,0.0,0.0,0.0,0.0,0.0,0.0,0
76f897717d325b35,1551755030816,441,-6657.0,-8449.0,9727.0,0.0,0.0,0.0,0.0,0.0,0.0,0
76f897717d325b35,1551755030845,442,-6657.0,-8449.0,9471.0,0.0,0.0,0.0,0.0,0.0,0.0,0
76f897717d325b35,1551755030905,443,-6657.0,-8449.0,9727.0,0.0,0.0,0.0,0.0,0.0,0.0,0
76f897717d325b35,1551755030965,444,-6657.0,-8449.0,9471.0,0.0,0.0,0.0,0.0,0.0,0.0,0
76f897717d325b35,1551755031025,445,-6657.0,-8449.0,9471.0,0.0,0.0,0.0,0.0,0.0,0.0,0
76f897717d325b35,1551755031116,446,-6657.0,-8449.0,9727.0,0.0,0.0,0.0,0.0,0.0,0.0,0
76f897717d325b35,1551755031176,447,-6657.0,-8449.0,9727.0,0.0,0.0,0.0,0.0,0.0,0.0,0
76f897717d325b35,1551755031236,448,-6657.0,-8449.0,9471.0,0.0,0.0,0.0,0.0,0.0,0.0,0
76f897717d325b35,1551755031296,449,-6657.0,-8449.0,9727.0,0.0,0.0,0.0,0.0,0.0,0.0,0
76f897717d325b35,1551755031356,450,-6657.0,-8449.0,9727.0,0.0,0.0,0.0,0.0,0.0,0.0,0
76f897717d325b35,1551755031476,451,-6657.0,-8449.0,9727.0,0.0,0.0,0.0,0.0,0.0,0.0,0
76f897717d325b35,1551755031506,452,-6657.0,-8449.0,9727.0,0.0,0.0,0.0,0.0,0.0,0.0,0
76f897717d325b35,1551755031566,453,-6657.0,-8449.0,9727.0,0.0,0.0,0.0,0.0,0.0,0.0,0
76f897717d325b35,1551755031626,454,-6657.0,-8449.0,9727.0,0.0,0.0,0.0,0.0,0.0,0.0,0
76f897717d325b35,1551755031686,455,-6657.0,-8449.0,9471.0,0.0,0.0,0.0,0.0,0.0,0.0,0
76f897717d325b35,1551755031776,456,-6657.0,-8449.0,9727.0,0.0,0.0,0.0,0.0,0.0,0.0,0
76f897717d325b35,1551755031836,457,-6657.0,-8449.0,9727.0,0.0,0.0,0.0,0.0,0.0,0.0,0
76f897717d325b35,1551755031926,458,-6657.0,-8449.0,9471.0,0.0,0.0,0.0,0.0,0.0,0.0,0
76f897717d325b35,1551755031956,459,-6657.0,-8449.0,9727.0,0.0,0.0,0.0,0.0,0.0,0.0,0
76f897717d325b35,1551755032016,460,-6657.0,-8449.0,9727.0,0.0,0.0,0.0,0.0,0.0,0.0,0
76f897717d325b35,1551755032106,461,-6657.0,-8449.0,9727.0,0.0,0.0,0.0,0.0,0.0,0.0,0
76f897717d325b35,1551755032165,462,-6657.0,-8449.0,9727.0,0.0,0.0,0.0,0.0,0.0,0.0,0
76f897717d325b35,1551755032226,463,-6657.0,-8449.0,9727.0,0.0,0.0,0.0,0.0,0.0,0.0,0
76f897717d325b35,1551755032286,464,-6657.0,-8449.0,9727.0,0.0,0.0,0.0,0.0,0.0,0.0,0
76f897717d325b35,1551755032345,465,-6657.0,-8449.0,9727.0,0.0,0.0,0.0,0.0,0.0,0.0,0
76f897717d325b35,1551755032436,466,-6657.0,-8449.0,9727.0,0.0,0.0,0.0,0.0,0.0,0.0,0
76f897717d325b35,1551755032496,467,-6657.0,-8449.0,9727.0,0.0,0.0,0.0,0.0,0.0,0.0,0
76f897717d325b35,1551755032556,468,-6657.0,-8449.0,9727.0,0.0,0.0,0.0,0.0,0.0,0.0,0
76f897717d325b35,1551755032616,469,-6657.0,-8449.0,9727.0,0.0,0.0,0.0,0.0,0.0,0.0,0
76f897717d325b35,1551755032676,470,-6657.0,-8449.0,9727.0,0.0,0.0,0.0,0.0,0.0,0.0,0
76f897717d325b35,1551755032766,471,-6657.0,-8449.0,9727.0,0.0,0.0,0.0,0.0,0.0,0.0,0
76f897717d325b35,1551755032826,472,-6657.0,-8449.0,9727.0,0.0,0.0,0.0,0.0,0.0,0.0,0
76f897717d325b35,1551755032886,473,-6657.0,-8449.0,9727.0,0.0,0.0,0.0,0.0,0.0,0.0,0
76f897717d325b35,1551755032945,474,-6657.0,-8449.0,9727.0,0.0,0.0,0.0,0.0,0.0,0.0,0
76f897717d325b35,1551755033006,475,-6657.0,-8449.0,9471.0,0.0,0.0,0.0,0.0,0.0,0.0,0
76f897717d325b35,1551755033096,476,-6657.0,-8449.0,9727.0,0.0,0.0,0.0,0.0,0.0,0.0,0
76f897717d325b35,1551755033156,477,-6657.0,-8449.0,9727.0,0.0,0.0,0.0,0.0,0.0,0.0,0
76f897717d325b35,1551755033216,478,-6657.0,-8449.0,9471.0,0.0,0.0,0.0,0.0,0.0,0.0,0
76f897717d325b35,1551755033276,479,-6657.0,-8449.0,9727.0,0.0,0.0,0.0,0.0,0.0,0.0,0
76f897717d325b35,1551755033336,480,-6657.0,-8449.0,9471.0,0.0,0.0,0.0,0.0,0.0,0.0,0
76f897717d325b35,1551755033426,481,-6657.0,-8449.0,9727.0,0.0,0.0,0.0,0.0,0.0,0.0,0
76f897717d325b35,1551755033486,482,-6657.0,-8449.0,9471.0,0.0,0.0,0.0,0.0,0.0,0.0,0
76f897717d325b35,1551755033545,483,-6657.0,-8449.0,9727.0,0.0,0.0,0.0,0.0,0.0,0.0,0
76f897717d325b35,1551755033606,484,-6657.0,-8449.0,9727.0,0.0,0.0,0.0,0.0,0.0,0.0,0
76f897717d325b35,1551755033665,485,-6657.0,-8449.0,9727.0,0.0,0.0,0.0,0.0,0.0,0.0,0
76f897717d325b35,1551755033756,486,-6657.0,-8449.0,9727.0,0.0,0.0,0.0,0.0,0.0,0.0,0
76f897717d325b35,1551755033816,487,-6657.0,-8449.0,9471.0,0.0,0.0,0.0,0.0,0.0,0.0,0
76f897717d325b35,1551755033876,488,-6657.0,-8449.0,9471.0,0.0,0.0,0.0,0.0,0.0,0.0,0
76f897717d325b35,1551755033936,489,-6657.0,-8449.0,9727.0,0.0,0.0,0.0,0.0,0.0,0.0,0
76f897717d325b35,1551755033996,490,-6657.0,-8449.0,9727.0,0.0,0.0,0.0,0.0,0.0,0.0,0
76f897717d325b35,1551755034085,491,-6657.0,-8449.0,9471.0,0.0,0.0,0.0,0.0,0.0,0.0,0
76f897717d325b35,1551755034145,492,-6657.0,-8449.0,9471.0,0.0,0.0,0.0,0.0,0.0,0.0,0
76f897717d325b35,1551755034206,493,-6657.0,-8449.0,9471.0,0.0,0.0,0.0,0.0,0.0,0.0,0
76f897717d325b35,1551755034266,494,-6657.0,-8449.0,9471.0,0.0,0.0,0.0,0.0,0.0,0.0,0
76f897717d325b35,1551755034326,495,-6657.0,-8449.0,9471.0,0.0,0.0,0.0,0.0,0.0,0.0,0
76f897717d325b35,1551755034416,496,-6657.0,-8449.0,9471.0,0.0,0.0,0.0,0.0,0.0,0.0,0
76f897717d325b35,1551755034476,497,-6657.0,-8449.0,9727.0,0.0,0.0,0.0,0.0,0.0,0.0,0
76f897717d325b35,1551755034535,498,-6657.0,-8449.0,9471.0,0.0,0.0,0.0,0.0,0.0,0.0,0
76f897717d325b35,1551755034596,499,-6657.0,-8449.0,9727.0,0.0,0.0,0.0,0.0,0.0,0.0,0
76f897717d325b35,1551755034655,500,-6657.0,-8449.0,9471.0,0.0,0.0,0.0,0.0,0.0,0.0,0
76f897717d325b35,1551755034745,501,-6657.0,-8449.0,9727.0,0.0,0.0,0.0,0.0,0.0,0.0,0
76f897717d325b35,1551755034806,502,-6657.0,-8449.0,9471.0,0.0,0.0,0.0,0.0,0.0,0.0,0
76f897717d325b35,1551755034866,503,-6657.0,-8449.0,9471.0,0.0,0.0,0.0,0.0,0.0,0.0,0
76f897717d325b35,1551755034925,504,-6657.0,-8449.0,9727.0,0.0,0.0,0.0,0.0,0.0,0.0,0
76f897717d325b35,1551755034986,505,-6657.0,-8449.0,9471.0,0.0,0.0,0.0,0.0,0.0,0.0,0
76f897717d325b35,1551755035076,506,-6657.0,-8449.0,9727.0,0.0,0.0,0.0,0.0,0.0,0.0,0
76f897717d325b35,1551755035136,507,-6657.0,-8449.0,9471.0,0.0,0.0,0.0,0.0,0.0,0.0,0
76f897717d325b35,1551755035196,508,-6657.0,-8449.0,9727.0,0.0,0.0,0.0,0.0,0.0,0.0,0
76f897717d325b35,1551755035256,509,-6657.0,-8449.0,9471.0,0.0,0.0,0.0,0.0,0.0,0.0,0
76f897717d325b35,1551755035316,510,-6657.0,-8449.0,9471.0,0.0,0.0,0.0,0.0,0.0,0.0,0
76f897717d325b35,1551755035405,511,-6657.0,-8449.0,9471.0,0.0,0.0,0.0,0.0,0.0,0.0,0
76f897717d325b35,1551755035466,512,-6657.0,-8705.0,9471.0,0.0,0.0,0.0,0.0,0.0,0.0,0
76f897717d325b35,1551755035526,513,-6657.0,-8449.0,9471.0,0.0,0.0,0.0,0.0,0.0,0.0,0
76f897717d325b35,1551755035586,514,-6657.0,-8449.0,9471.0,0.0,0.0,0.0,0.0,0.0,0.0,0
76f897717d325b35,1551755035645,515,-6657.0,-8449.0,9727.0,0.0,0.0,0.0,0.0,0.0,0.0,0
76f897717d325b35,1551755035736,516,-6657.0,-8449.0,9471.0,0.0,0.0,0.0,0.0,0.0,0.0,0
76f897717d325b35,1551755035795,517,-6657.0,-8449.0,9471.0,0.0,0.0,0.0,0.0,0.0,0.0,0
76f897717d325b35,1551755035856,518,-6657.0,-8449.0,9471.0,0.0,0.0,0.0,0.0,0.0,0.0,0
76f897717d325b35,1551755035916,519,-6657.0,-8449.0,9471.0,0.0,0.0,0.0,0.0,0.0,0.0,0
76f897717d325b35,1551755035975,520,-6657.0,-8449.0,9471.0,0.0,0.0,0.0,0.0,0.0,0.0,0
76f897717d325b35,1551755035976,521,-6657.0,-8449.0,9471.0,0.0,0.0,0.0,0.0,0.0,0.0,0
76f897717d325b35,1551755036066,522,-6657.0,-8449.0,9471.0,0.0,0.0,0.0,0.0,0.0,0.0,0
76f897717d325b35,1551755036126,523,-6657.0,-8449.0,9471.0,0.0,0.0,0.0,0.0,0.0,0.0,0
76f897717d325b35,1551755036186,524,-6657.0,-8449.0,9471.0,0.0,0.0,0.0,0.0,0.0,0.0,0
76f897717d325b35,1551755036245,525,-6657.0,-8449.0,9471.0,0.0,0.0,0.0,0.0,0.0,0.0,0
76f897717d325b35,1551755036306,526,-6657.0,-8449.0,9727.0,0.0,0.0,0.0,0.0,0.0,0.0,0
76f897717d325b35,1551755036396,527,-6657.0,-8449.0,9471.0,0.0,0.0,0.0,0.0,0.0,0.0,0
76f897717d325b35,1551755036456,528,-6657.0,-8449.0,9471.0,0.0,0.0,0.0,0.0,0.0,0.0,0
76f897717d325b35,1551755036516,529,-6657.0,-8449.0,9471.0,0.0,0.0,0.0,0.0,0.0,0.0,0
76f897717d325b35,1551755036575,530,-6657.0,-8449.0,9471.0,0.0,0.0,0.0,0.0,0.0,0.0,0
76f897717d325b35,1551755036635,531,-6657.0,-8449.0,9471.0,0.0,0.0,0.0,0.0,0.0,0.0,0
76f897717d325b35,1551755036725,532,-6657.0,-8449.0,9471.0,0.0,0.0,0.0,0.0,0.0,0.0,0
76f897717d325b35,1551755036785,533,-6657.0,-8449.0,9471.0,0.0,0.0,0.0,0.0,0.0,0.0,0
76f897717d325b35,1551755036845,534,-6657.0,-8449.0,9471.0,0.0,0.0,0.0,0.0,0.0,0.0,0
76f897717d325b35,1551755036905,535,-6657.0,-8449.0,9471.0,0.0,0.0,0.0,0.0,0.0,0.0,0
76f897717d325b35,1551755036965,536,-6657.0,-8449.0,9727.0,0.0,0.0,0.0,0.0,0.0,0.0,0
76f897717d325b35,1551755036966,537,-6657.0,-8449.0,9727.0,0.0,0.0,0.0,0.0,0.0,0.0,0
76f897717d325b35,1551755037056,538,-6657.0,-8449.0,9471.0,0.0,0.0,0.0,0.0,0.0,0.0,0
76f897717d325b35,1551755037116,539,-6657.0,-8449.0,9471.0,0.0,0.0,0.0,0.0,0.0,0.0,0
76f897717d325b35,1551755037175,540,-6657.0,-8449.0,9471.0,0.0,0.0,0.0,0.0,0.0,0.0,0
76f897717d325b35,1551755037236,541,-6657.0,-8449.0,9471.0,0.0,0.0,0.0,0.0,0.0,0.0,0
76f897717d325b35,1551755037296,542,-6657.0,-8449.0,9471.0,0.0,0.0,0.0,0.0,0.0,0.0,0
76f897717d325b35,1551755037386,543,-6657.0,-8449.0,9471.0,0.0,0.0,0.0,0.0,0.0,0.0,0
76f897717d325b35,1551755037445,544,-6657.0,-8449.0,9471.0,0.0,0.0,0.0,0.0,0.0,0.0,0
76f897717d325b35,1551755037506,545,-6657.0,-8449.0,9471.0,0.0,0.0,0.0,0.0,0.0,0.0,0
76f897717d325b35,1551755037565,546,-6657.0,-8449.0,9471.0,0.0,0.0,0.0,0.0,0.0,0.0,0
76f897717d325b35,1551755037625,547,-6657.0,-8449.0,9727.0,0.0,0.0,0.0,0.0,0.0,0.0,0
76f897717d325b35,1551755037716,548,-6657.0,-8449.0,9727.0,0.0,0.0,0.0,0.0,0.0,0.0,0
76f897717d325b35,1551755037776,549,-6657.0,-8449.0,9471.0,0.0,0.0,0.0,0.0,0.0,0.0,0
76f897717d325b35,1551755037835,550,-6657.0,-8449.0,9727.0,0.0,0.0,0.0,0.0,0.0,0.0,0
76f897717d325b35,1551755037895,551,-6657.0,-8449.0,9471.0,0.0,0.0,0.0,0.0,0.0,0.0,0
76f897717d325b35,1551755037954,552,-6657.0,-8449.0,9471.0,0.0,0.0,0.0,0.0,0.0,0.0,0
76f897717d325b35,1551755037985,553,-6657.0,-8449.0,9471.0,0.0,0.0,0.0,0.0,0.0,0.0,0
76f897717d325b35,1551755038045,554,-6657.0,-8705.0,9471.0,0.0,0.0,0.0,0.0,0.0,0.0,0
76f897717d325b35,1551755038105,555,-6657.0,-8449.0,9471.0,0.0,0.0,0.0,0.0,0.0,0.0,0
76f897717d325b35,1551755038165,556,-6657.0,-8449.0,9471.0,0.0,0.0,0.0,0.0,0.0,0.0,0
76f897717d325b35,1551755038225,557,-6657.0,-8449.0,9727.0,0.0,0.0,0.0,0.0,0.0,0.0,0
76f897717d325b35,1551755038285,558,-6657.0,-8449.0,9471.0,0.0,0.0,0.0,0.0,0.0,0.0,0
76f897717d325b35,1551755038375,559,-6657.0,-8449.0,9727.0,0.0,0.0,0.0,0.0,0.0,0.0,0
76f897717d325b35,1551755038435,560,-6657.0,-8449.0,9727.0,0.0,0.0,0.0,0.0,0.0,0.0,0
76f897717d325b35,1551755038495,561,-6401.0,-8449.0,9471.0,0.0,0.0,0.0,0.0,0.0,0.0,0
76f897717d325b35,1551755038555,562,-6657.0,-8449.0,9471.0,0.0,0.0,0.0,0.0,0.0,0.0,0
76f897717d325b35,1551755038616,563,-6657.0,-8449.0,9727.0,0.0,0.0,0.0,0.0,0.0,0.0,0
76f897717d325b35,1551755038706,564,-6657.0,-8449.0,9727.0,0.0,0.0,0.0,0.0,0.0,0.0,0
76f897717d325b35,1551755038766,565,-6657.0,-8449.0,9727.0,0.0,0.0,0.0,0.0,0.0,0.0,0
76f897717d325b35,1551755038825,566,-6657.0,-8449.0,9727.0,0.0,0.0,0.0,0.0,0.0,0.0,0
76f897717d325b35,1551755038886,567,-6657.0,-8449.0,9471.0,0.0,0.0,0.0,0.0,0.0,0.0,0
76f897717d325b35,1551755038944,568,-6401.0,-8449.0,9727.0,0.0,0.0,0.0,0.0,0.0,0.0,0
76f897717d325b35,1551755038974,569,-6401.0,-8449.0,9727.0,0.0,0.0,0.0,0.0,0.0,0.0,0
76f897717d325b35,1551755039035,570,-6657.0,-8449.0,9471.0,0.0,0.0,0.0,0.0,0.0,0.0,0
76f897717d325b35,1551755039096,571,-6657.0,-8449.0,9471.0,0.0,0.0,0.0,0.0,0.0,0.0,0
76f897717d325b35,1551755039155,572,-6657.0,-8449.0,9727.0,0.0,0.0,0.0,0.0,0.0,0.0,0
76f897717d325b35,1551755039215,573,-6657.0,-8449.0,9727.0,0.0,0.0,0.0,0.0,0.0,0.0,0
76f897717d325b35,1551755039275,574,-6657.0,-8449.0,9727.0,0.0,0.0,0.0,0.0,0.0,0.0,0
76f897717d325b35,1551755039366,575,-6657.0,-8449.0,9727.0,0.0,0.0,0.0,0.0,0.0,0.0,0
76f897717d325b35,1551755039425,576,-6657.0,-8449.0,9727.0,0.0,0.0,0.0,0.0,0.0,0.0,0
76f897717d325b35,1551755039485,577,-6657.0,-8449.0,9727.0,0.0,0.0,0.0,0.0,0.0,0.0,0
76f897717d325b35,1551755039545,578,-6657.0,-8449.0,9727.0,0.0,0.0,0.0,0.0,0.0,0.0,0
76f897717d325b35,1551755039606,579,-6657.0,-8449.0,9471.0,0.0,0.0,0.0,0.0,0.0,0.0,0
76f897717d325b35,1551755039695,580,-6657.0,-8449.0,9727.0,0.0,0.0,0.0,0.0,0.0,0.0,0
76f897717d325b35,1551755039755,581,-6657.0,-8449.0,9471.0,0.0,0.0,0.0,0.0,0.0,0.0,0
76f897717d325b35,1551755039815,582,-6657.0,-8449.0,9727.0,0.0,0.0,0.0,0.0,0.0,0.0,0
76f897717d325b35,1551755039876,583,-6657.0,-8449.0,9727.0,0.0,0.0,0.0,0.0,0.0,0.0,0
76f897717d325b35,1551755039935,584,-6657.0,-8449.0,9727.0,0.0,0.0,0.0,0.0,0.0,0.0,0
76f897717d325b35,1551755040025,585,-6657.0,-8449.0,9727.0,0.0,0.0,0.0,0.0,0.0,0.0,0
76f897717d325b35,1551755040086,586,-6657.0,-8449.0,9471.0,0.0,0.0,0.0,0.0,0.0,0.0,0
76f897717d325b35,1551755040145,587,-6657.0,-8449.0,9727.0,0.0,0.0,0.0,0.0,0.0,0.0,0
76f897717d325b35,1551755040206,588,-6657.0,-8449.0,9727.0,0.0,0.0,0.0,0.0,0.0,0.0,0
76f897717d325b35,1551755040295,589,-6657.0,-8449.0,9727.0,0.0,0.0,0.0,0.0,0.0,0.0,0
76f897717d325b35,1551755040355,590,-6657.0,-8449.0,9727.0,0.0,0.0,0.0,0.0,0.0,0.0,0
76f897717d325b35,1551755040415,591,-6657.0,-8449.0,9727.0,0.0,0.0,0.0,0.0,0.0,0.0,0
76f897717d325b35,1551755040475,592,-6657.0,-8449.0,9727.0,0.0,0.0,0.0,0.0,0.0,0.0,0
76f897717d325b35,1551755040535,593,-6657.0,-8449.0,9727.0,0.0,0.0,0.0,0.0,0.0,0.0,0
76f897717d325b35,1551755040596,594,-6657.0,-8449.0,9727.0,0.0,0.0,0.0,0.0,0.0,0.0,0
76f897717d325b35,1551755040685,595,-6657.0,-8449.0,9727.0,0.0,0.0,0.0,0.0,0.0,0.0,0
76f897717d325b35,1551755040745,596,-6657.0,-8449.0,9471.0,0.0,0.0,0.0,0.0,0.0,0.0,0
76f897717d325b35,1551755040805,597,-6657.0,-8449.0,9727.0,0.0,0.0,0.0,0.0,0.0,0.0,0
76f897717d325b35,1551755040865,598,-6657.0,-8449.0,9727.0,0.0,0.0,0.0,0.0,0.0,0.0,0
76f897717d325b35,1551755040925,599,-6657.0,-8449.0,9727.0,0.0,0.0,0.0,0.0,0.0,0.0,0
76f897717d325b35,1551755041016,600,-6657.0,-8449.0,9727.0,0.0,0.0,0.0,0.0,0.0,0.0,0
76f897717d325b35,1551755041075,601,-6657.0,-8449.0,9727.0,0.0,0.0,0.0,0.0,0.0,0.0,0
76f897717d325b35,1551755041135,602,-6657.0,-8449.0,9727.0,0.0,0.0,0.0,0.0,0.0,0.0,0
76f897717d325b35,1551755041195,603,-6657.0,-8449.0,9727.0,0.0,0.0,0.0,0.0,0.0,0.0,0
76f897717d325b35,1551755041255,604,-6657.0,-8449.0,9471.0,0.0,0.0,0.0,0.0,0.0,0.0,0
76f897717d325b35,1551755041345,605,-6657.0,-8449.0,9727.0,0.0,0.0,0.0,0.0,0.0,0.0,0
76f897717d325b35,1551755041405,606,-6657.0,-8449.0,9471.0,0.0,0.0,0.0,0.0,0.0,0.0,0
76f897717d325b35,1551755041465,607,-6657.0,-8449.0,9471.0,0.0,0.0,0.0,0.0,0.0,0.0,0
76f897717d325b35,1551755041526,608,-6657.0,-8449.0,9471.0,0.0,0.0,0.0,0.0,0.0,0.0,0
76f897717d325b35,1551755041585,609,-6657.0,-8449.0,9471.0,0.0,0.0,0.0,0.0,0.0,0.0,0
76f897717d325b35,1551755041675,610,-6657.0,-8449.0,9727.0,0.0,0.0,0.0,0.0,0.0,0.0,0
76f897717d325b35,1551755041735,611,-6657.0,-8449.0,9471.0,0.0,0.0,0.0,0.0,0.0,0.0,0
76f897717d325b35,1551755041795,612,-6657.0,-8705.0,9471.0,0.0,0.0,0.0,0.0,0.0,0.0,0
76f897717d325b35,1551755041855,613,-6657.0,-8449.0,9471.0,0.0,0.0,0.0,0.0,0.0,0.0,0
76f897717d325b35,1551755041916,614,-6657.0,-8449.0,9471.0,0.0,0.0,0.0,0.0,0.0,0.0,0
76f897717d325b35,1551755042005,615,-6657.0,-8449.0,9727.0,0.0,0.0,0.0,0.0,0.0,0.0,0
76f897717d325b35,1551755042065,616,-6657.0,-8449.0,9471.0,0.0,0.0,0.0,0.0,0.0,0.0,0
76f897717d325b35,1551755042125,617,-6657.0,-8449.0,9471.0,0.0,0.0,0.0,0.0,0.0,0.0,0
76f897717d325b35,1551755042185,618,-6657.0,-8449.0,9727.0,0.0,0.0,0.0,0.0,0.0,0.0,0
76f897717d325b35,1551755042245,619,-6657.0,-8449.0,9471.0,0.0,0.0,0.0,0.0,0.0,0.0,0
76f897717d325b35,1551755042335,620,-6657.0,-8449.0,9471.0,0.0,0.0,0.0,0.0,0.0,0.0,0
76f897717d325b35,1551755042395,621,-6657.0,-8449.0,9727.0,0.0,0.0,0.0,0.0,0.0,0.0,0
76f897717d325b35,1551755042455,622,-6657.0,-8449.0,9471.0,0.0,0.0,0.0,0.0,0.0,0.0,0
76f897717d325b35,1551755042516,623,-6657.0,-8449.0,9727.0,0.0,0.0,0.0,0.0,0.0,0.0,0
76f897717d325b35,1551755042575,624,-6657.0,-8449.0,9471.0,0.0,0.0,0.0,0.0,0.0,0.0,0
76f897717d325b35,1551755042665,625,-6657.0,-8449.0,9471.0,0.0,0.0,0.0,0.0,0.0,0.0,0
76f897717d325b35,1551755042725,626,-6657.0,-8449.0,9727.0,0.0,0.0,0.0,0.0,0.0,0.0,0
76f897717d325b35,1551755042786,627,-6657.0,-8449.0,9471.0,0.0,0.0,0.0,0.0,0.0,0.0,0
76f897717d325b35,1551755042845,628,-6657.0,-8449.0,9471.0,0.0,0.0,0.0,0.0,0.0,0.0,0
76f897717d325b35,1551755042906,629,-6657.0,-8449.0,9727.0,0.0,0.0,0.0,0.0,0.0,0.0,0
76f897717d325b35,1551755043025,630,-6657.0,-8449.0,9727.0,0.0,0.0,0.0,0.0,0.0,0.0,0
76f897717d325b35,1551755043055,631,-6657.0,-8449.0,9471.0,0.0,0.0,0.0,0.0,0.0,0.0,0
76f897717d325b35,1551755043115,632,-6657.0,-8449.0,9727.0,0.0,0.0,0.0,0.0,0.0,0.0,0
76f897717d325b35,1551755043175,633,-6657.0,-8449.0,9727.0,0.0,0.0,0.0,0.0,0.0,0.0,0
76f897717d325b35,1551755043235,634,-6657.0,-8449.0,9727.0,0.0,0.0,0.0,0.0,0.0,0.0,0
76f897717d325b35,1551755043325,635,-6657.0,-8449.0,9471.0,0.0,0.0,0.0,0.0,0.0,0.0,0
76f897717d325b35,1551755043385,636,-6657.0,-8449.0,9727.0,0.0,0.0,0.0,0.0,0.0,0.0,0
76f897717d325b35,1551755043475,637,-6913.0,-8449.0,9727.0,0.0,0.0,0.0,0.0,0.0,0.0,0
76f897717d325b35,1551755043505,638,-6657.0,-8449.0,9727.0,0.0,0.0,0.0,0.0,0.0,0.0,0
76f897717d325b35,1551755043565,639,-6657.0,-8449.0,9727.0,0.0,0.0,0.0,0.0,0.0,0.0,0
76f897717d325b35,1551755043685,640,-6657.0,-8449.0,9471.0,0.0,0.0,0.0,0.0,0.0,0.0,0
76f897717d325b35,1551755043715,641,-6401.0,-8705.0,9471.0,0.0,0.0,0.0,0.0,0.0,0.0,0
76f897717d325b35,1551755043776,642,-6657.0,-8705.0,9471.0,0.0,0.0,0.0,0.0,0.0,0.0,0
76f897717d325b35,1551755043835,643,-6657.0,-8449.0,9471.0,0.0,0.0,0.0,0.0,0.0,0.0,0
76f897717d325b35,1551755043895,644,-6657.0,-8449.0,9471.0,0.0,0.0,0.0,0.0,0.0,0.0,0
76f897717d325b35,1551755043984,645,-6657.0,-8449.0,9727.0,0.0,0.0,0.0,0.0,0.0,0.0,0
76f897717d325b35,1551755044045,646,-6657.0,-8449.0,9471.0,0.0,0.0,0.0,0.0,0.0,0.0,0
76f897717d325b35,1551755044105,647,-6913.0,-8449.0,9727.0,0.0,0.0,0.0,0.0,0.0,0.0,0
76f897717d325b35,1551755044165,648,-6657.0,-8449.0,9727.0,0.0,0.0,0.0,0.0,0.0,0.0,0
76f897717d325b35,1551755044225,649,-6657.0,-8193.0,9727.0,0.0,0.0,0.0,0.0,0.0,0.0,0
76f897717d325b35,1551755044345,650,-6913.0,-8705.0,9471.0,0.0,0.0,0.0,0.0,0.0,0.0,0
76f897717d325b35,1551755044375,651,-6913.0,-8193.0,9727.0,0.0,0.0,0.0,0.0,0.0,0.0,0
76f897717d325b35,1551755044435,652,-6913.0,-8449.0,9983.0,0.0,0.0,0.0,0.0,0.0,0.0,0
76f897717d325b35,1551755044495,653,-6913.0,-8449.0,9727.0,0.0,0.0,0.0,0.0,0.0,0.0,0
76f897717d325b35,1551755044555,654,-6657.0,-8449.0,9727.0,0.0,0.0,0.0,0.0,0.0,0.0,0
76f897717d325b35,1551755044645,655,-7169.0,-7937.0,9983.0,0.0,0.0,0.0,0.0,0.0,0.0,0
76f897717d325b35,1551755044705,656,-6657.0,-8705.0,9727.0,0.0,0.0,0.0,0.0,0.0,0.0,0
76f897717d325b35,1551755044765,657,-6913.0,-8705.0,9471.0,0.0,0.0,0.0,0.0,0.0,0.0,0
76f897717d325b35,1551755044825,658,-6657.0,-8193.0,9983.0,0.0,0.0,0.0,0.0,0.0,0.0,0
76f897717d325b35,1551755044885,659,-7425.0,-8193.0,10239.0,0.0,0.0,0.0,0.0,0.0,0.0,0
76f897717d325b35,1551755044974,660,-6657.0,-8193.0,10239.0,0.0,0.0,0.0,0.0,0.0,0.0,0
76f897717d325b35,1551755045035,661,-6913.0,-8193.0,9727.0,0.0,0.0,0.0,0.0,0.0,0.0,0
76f897717d325b35,1551755045095,662,-6657.0,-8705.0,9727.0,0.0,0.0,0.0,0.0,0.0,0.0,0
76f897717d325b35,1551755045155,663,-6913.0,-8449.0,9727.0,0.0,0.0,0.0,0.0,0.0,0.0,0
76f897717d325b35,1551755045216,664,-6913.0,-8193.0,9727.0,0.0,0.0,0.0,0.0,0.0,0.0,0
76f897717d325b35,1551755045305,665,-6913.0,-8705.0,9471.0,0.0,0.0,0.0,0.0,0.0,0.0,0
76f897717d325b35,1551755045365,666,-6657.0,-8449.0,9727.0,0.0,0.0,0.0,0.0,0.0,0.0,0
76f897717d325b35,1551755045425,667,-6913.0,-8193.0,9727.0,0.0,0.0,0.0,0.0,0.0,0.0,0
76f897717d325b35,1551755045485,668,-6657.0,-8449.0,9471.0,0.0,0.0,0.0,0.0,0.0,0.0,0
76f897717d325b35,1551755045545,669,-6657.0,-8449.0,9471.0,0.0,0.0,0.0,0.0,0.0,0.0,0
76f897717d325b35,1551755045635,670,-6657.0,-8449.0,9471.0,0.0,0.0,0.0,0.0,0.0,0.0,0
76f897717d325b35,1551755045695,671,-6657.0,-8449.0,9471.0,0.0,0.0,0.0,0.0,0.0,0.0,0
76f897717d325b35,1551755045755,672,-6657.0,-8449.0,9727.0,0.0,0.0,0.0,0.0,0.0,0.0,0
76f897717d325b35,1551755045815,673,-6657.0,-8449.0,9727.0,0.0,0.0,0.0,0.0,0.0,0.0,0
76f897717d325b35,1551755045875,674,-6657.0,-8449.0,9727.0,0.0,0.0,0.0,0.0,0.0,0.0,0
76f897717d325b35,1551755045964,675,-6657.0,-8449.0,9471.0,0.0,0.0,0.0,0.0,0.0,0.0,0
76f897717d325b35,1551755046025,676,-6657.0,-8449.0,9727.0,0.0,0.0,0.0,0.0,0.0,0.0,0
76f897717d325b35,1551755046085,677,-6913.0,-8449.0,9471.0,0.0,0.0,0.0,0.0,0.0,0.0,0
76f897717d325b35,1551755046145,678,-6657.0,-8449.0,9727.0,0.0,0.0,0.0,0.0,0.0,0.0,0
76f897717d325b35,1551755046205,679,-6657.0,-8449.0,9471.0,0.0,0.0,0.0,0.0,0.0,0.0,0
76f897717d325b35,1551755046295,680,-6657.0,-8449.0,9727.0,0.0,0.0,0.0,0.0,0.0,0.0,0
76f897717d325b35,1551755046355,681,-6657.0,-8449.0,9471.0,0.0,0.0,0.0,0.0,0.0,0.0,0
76f897717d325b35,1551755046415,682,-6657.0,-8449.0,9727.0,0.0,0.0,0.0,0.0,0.0,0.0,0
76f897717d325b35,1551755046475,683,-6657.0,-8449.0,9727.0,0.0,0.0,0.0,0.0,0.0,0.0,0
76f897717d325b35,1551755046535,684,-6657.0,-8449.0,9471.0,0.0,0.0,0.0,0.0,0.0,0.0,0
76f897717d325b35,1551755046625,685,-6913.0,-8449.0,9727.0,0.0,0.0,0.0,0.0,0.0,0.0,0
76f897717d325b35,1551755046685,686,-6657.0,-8449.0,9727.0,0.0,0.0,0.0,0.0,0.0,0.0,0
76f897717d325b35,1551755046745,687,-6657.0,-8449.0,9471.0,0.0,0.0,0.0,0.0,0.0,0.0,0
76f897717d325b35,1551755046805,688,-6913.0,-8449.0,9727.0,0.0,0.0,0.0,0.0,0.0,0.0,0
76f897717d325b35,1551755046865,689,-6657.0,-8449.0,9727.0,0.0,0.0,0.0,0.0,0.0,0.0,0
76f897717d325b35,1551755046955,690,-6657.0,-8449.0,9727.0,0.0,0.0,0.0,0.0,0.0,0.0,0
76f897717d325b35,1551755047015,691,-6657.0,-8449.0,9727.0,0.0,0.0,0.0,0.0,0.0,0.0,0
76f897717d325b35,1551755047075,692,-7169.0,-8193.0,9727.0,0.0,0.0,0.0,0.0,0.0,0.0,0
76f897717d325b35,1551755047135,693,-6401.0,-8449.0,9215.0,0.0,0.0,0.0,0.0,0.0,0.0,0
76f897717d325b35,1551755047195,694,-6657.0,-8193.0,9727.0,0.0,0.0,0.0,0.0,0.0,0.0,0
76f897717d325b35,1551755047285,695,-6401.0,-8961.0,8959.0,0.0,0.0,0.0,0.0,0.0,0.0,0
76f897717d325b35,1551755047345,696,-7425.0,-8193.0,9471.0,0.0,0.0,0.0,0.0,0.0,0.0,0
76f897717d325b35,1551755047405,697,-6657.0,-8705.0,9471.0,0.0,0.0,0.0,0.0,0.0,0.0,0
76f897717d325b35,1551755047465,698,-7169.0,-7937.0,9471.0,0.0,0.0,0.0,0.0,0.0,0.0,0
76f897717d325b35,1551755047525,699,-7169.0,-8705.0,9471.0,0.0,0.0,0.0,0.0,0.0,0.0,0
76f897717d325b35,1551755047616,700,-5889.0,-8705.0,9215.0,0.0,0.0,0.0,0.0,0.0,0.0,0
76f897717d325b35,1551755047675,701,-6913.0,-8193.0,9471.0,0.0,0.0,0.0,0.0,0.0,0.0,0
76f897717d325b35,1551755047735,702,-6401.0,-8449.0,9727.0,0.0,0.0,0.0,0.0,0.0,0.0,0
76f897717d325b35,1551755047795,703,-6401.0,-8449.0,9215.0,0.0,0.0,0.0,0.0,0.0,0.0,0
76f897717d325b35,1551755047855,704,-6657.0,-8449.0,9727.0,0.0,0.0,0.0,0.0,0.0,0.0,0
76f897717d325b35,1551755047945,705,-6401.0,-8193.0,9471.0,0.0,0.0,0.0,0.0,0.0,0.0,0
76f897717d325b35,1551755048005,706,-6913.0,-8961.0,9983.0,0.0,0.0,0.0,0.0,0.0,0.0,0
76f897717d325b35,1551755048065,707,-7169.0,-8449.0,9727.0,0.0,0.0,0.0,0.0,0.0,0.0,0
76f897717d325b35,1551755048125,708,-6657.0,-7937.0,9215.0,0.0,0.0,0.0,0.0,0.0,0.0,0
76f897717d325b35,1551755048185,709,-6657.0,-9217.0,9471.0,0.0,0.0,0.0,0.0,0.0,0.0,0
76f897717d325b35,1551755048275,710,-6657.0,-7681.0,9727.0,0.0,0.0,0.0,0.0,0.0,0.0,0
76f897717d325b35,1551755048335,711,-6657.0,-8705.0,9983.0,0.0,0.0,0.0,0.0,0.0,0.0,0
76f897717d325b35,1551755048395,712,-7169.0,-7937.0,9983.0,0.0,0.0,0.0,0.0,0.0,0.0,0
76f897717d325b35,1551755048455,713,-6913.0,-8193.0,9727.0,0.0,0.0,0.0,0.0,0.0,0.0,0
76f897717d325b35,1551755048515,714,-6657.0,-8449.0,10239.0,0.0,0.0,0.0,0.0,0.0,0.0,0
76f897717d325b35,1551755048605,715,-6657.0,-7937.0,10495.0,0.0,0.0,0.0,0.0,0.0,0.0,0
76f897717d325b35,1551755048665,716,-6913.0,-7425.0,10495.0,0.0,0.0,0.0,0.0,0.0,0.0,0
76f897717d325b35,1551755048725,717,-7169.0,-7681.0,10495.0,0.0,0.0,0.0,0.0,0.0,0.0,0
76f897717d325b35,1551755048785,718,-7425.0,-7937.0,10751.0,0.0,0.0,0.0,0.0,0.0,0.0,0
76f897717d325b35,1551755048845,719,-7169.0,-7937.0,9471.0,0.0,0.0,0.0,0.0,0.0,0.0,0
76f897717d325b35,1551755048935,720,-7937.0,-8193.0,9983.0,0.0,0.0,0.0,0.0,0.0,0.0,0
76f897717d325b35,1551755048995,721,-7681.0,-8193.0,9471.0,0.0,0.0,0.0,0.0,0.0,0.0,0
76f897717d325b35,1551755049055,722,-8193.0,-8193.0,9215.0,0.0,0.0,0.0,0.0,0.0,0.0,0
76f897717d325b35,1551755049115,723,-7681.0,-7937.0,9215.0,0.0,0.0,0.0,0.0,0.0,0.0,0
76f897717d325b35,1551755049175,724,-7681.0,-7937.0,8959.0,0.0,0.0,0.0,0.0,0.0,0.0,0
76f897717d325b35,1551755049265,725,-7425.0,-7937.0,9215.0,0.0,0.0,0.0,0.0,0.0,0.0,0
76f897717d325b35,1551755049325,726,-7681.0,-7937.0,8959.0,0.0,0.0,0.0,0.0,0.0,0.0,0
76f897717d325b35,1551755049385,727,-7681.0,-8193.0,8959.0,0.0,0.0,0.0,0.0,0.0,0.0,0
76f897717d325b35,1551755049445,728,-7425.0,-8193.0,8447.0,0.0,0.0,0.0,0.0,0.0,0.0,0
76f897717d325b35,1551755049505,729,-7425.0,-7937.0,8447.0,0.0,0.0,0.0,0.0,0.0,0.0,0
76f897717d325b35,1551755049595,730,-7425.0,-7937.0,8447.0,0.0,0.0,0.0,0.0,0.0,0.0,0
76f897717d325b35,1551755049655,731,-7425.0,-7937.0,7935.0,0.0,0.0,0.0,0.0,0.0,0.0,0
76f897717d325b35,1551755049715,732,-7681.0,-7937.0,7935.0,0.0,0.0,0.0,0.0,0.0,0.0,0
76f897717d325b35,1551755049775,733,-7425.0,-7937.0,7679.0,0.0,0.0,0.0,0.0,0.0,0.0,0
76f897717d325b35,1551755049835,734,-7425.0,-7937.0,7679.0,0.0,0.0,0.0,0.0,0.0,0.0,0
76f897717d325b35,1551755049925,735,-7425.0,-7937.0,7679.0,0.0,0.0,0.0,0.0,0.0,0.0,0
76f897717d325b35,1551755049987,736,-7425.0,-7937.0,7679.0,0.0,0.0,0.0,0.0,0.0,0.0,0
76f897717d325b35,1551755050045,737,-7425.0,-7681.0,7679.0,0.0,0.0,0.0,0.0,0.0,0.0,0
76f897717d325b35,1551755050105,738,-7425.0,-7681.0,7423.0,0.0,0.0,0.0,0.0,0.0,0.0,0
76f897717d325b35,1551755050165,739,-7169.0,-7937.0,7423.0,0.0,0.0,0.0,0.0,0.0,0.0,0
76f897717d325b35,1551755050255,740,-7425.0,-7681.0,7679.0,0.0,0.0,0.0,0.0,0.0,0.0,0
76f897717d325b35,1551755050315,741,-7169.0,-7937.0,7423.0,0.0,0.0,0.0,0.0,0.0,0.0,0
76f897717d325b35,1551755050375,742,-7169.0,-7681.0,7167.0,0.0,0.0,0.0,0.0,0.0,0.0,0
76f897717d325b35,1551755050435,743,-7169.0,-7937.0,7167.0,0.0,0.0,0.0,0.0,0.0,0.0,0
76f897717d325b35,1551755050495,744,-7425.0,-7937.0,7167.0,0.0,0.0,0.0,0.0,0.0,0.0,0
76f897717d325b35,1551755050585,745,-7169.0,-7681.0,7167.0,0.0,0.0,0.0,0.0,0.0,0.0,0
76f897717d325b35,1551755050645,746,-7169.0,-7681.0,7167.0,0.0,0.0,0.0,0.0,0.0,0.0,0
76f897717d325b35,1551755050705,747,-7169.0,-7681.0,6911.0,0.0,0.0,0.0,0.0,0.0,0.0,0
76f897717d325b35,1551755050795,748,-7169.0,-7681.0,6911.0,0.0,0.0,0.0,0.0,0.0,0.0,0
76f897717d325b35,1551755050825,749,-7169.0,-7681.0,6911.0,0.0,0.0,0.0,0.0,0.0,0.0,0
76f897717d325b35,1551755050915,750,-7169.0,-7681.0,6911.0,0.0,0.0,0.0,0.0,0.0,0.0,0
76f897717d325b35,1551755051004,751,-7169.0,-7681.0,6911.0,0.0,0.0,0.0,0.0,0.0,0.0,0
76f897717d325b35,1551755051035,752,-7169.0,-7681.0,6911.0,0.0,0.0,0.0,0.0,0.0,0.0,0
76f897717d325b35,1551755051095,753,-7169.0,-7681.0,6911.0,0.0,0.0,0.0,0.0,0.0,0.0,0
76f897717d325b35,1551755051155,754,-7169.0,-7681.0,6911.0,0.0,0.0,0.0,0.0,0.0,0.0,0
76f897717d325b35,1551755051245,755,-7169.0,-7681.0,6911.0,0.0,0.0,0.0,0.0,0.0,0.0,0
76f897717d325b35,1551755051305,756,-6913.0,-7681.0,6911.0,0.0,0.0,0.0,0.0,0.0,0.0,0
76f897717d325b35,1551755051365,757,-6913.0,-7681.0,6911.0,0.0,0.0,0.0,0.0,0.0,0.0,0
76f897717d325b35,1551755051425,758,-7169.0,-7681.0,6911.0,0.0,0.0,0.0,0.0,0.0,0.0,0
76f897717d325b35,1551755051485,759,-6913.0,-7681.0,6911.0,0.0,0.0,0.0,0.0,0.0,0.0,0
76f897717d325b35,1551755051575,760,-6913.0,-7681.0,6911.0,0.0,0.0,0.0,0.0,0.0,0.0,0
76f897717d325b35,1551755051635,761,-7169.0,-7681.0,6911.0,0.0,0.0,0.0,0.0,0.0,0.0,0
76f897717d325b35,1551755051695,762,-6913.0,-7681.0,6911.0,0.0,0.0,0.0,0.0,0.0,0.0,0
76f897717d325b35,1551755051755,763,-7169.0,-7681.0,6911.0,0.0,0.0,0.0,0.0,0.0,0.0,0
76f897717d325b35,1551755051815,764,-7169.0,-7681.0,6911.0,0.0,0.0,0.0,0.0,0.0,0.0,0
76f897717d325b35,1551755051905,765,-7169.0,-7681.0,6911.0,0.0,0.0,0.0,0.0,0.0,0.0,0
76f897717d325b35,1551755051964,766,-7169.0,-7681.0,6911.0,0.0,0.0,0.0,0.0,0.0,0.0,0
76f897717d325b35,1551755052025,767,-7169.0,-7681.0,6911.0,0.0,0.0,0.0,0.0,0.0,0.0,0
76f897717d325b35,1551755052085,768,-7169.0,-7681.0,6911.0,0.0,0.0,0.0,0.0,0.0,0.0,0
76f897717d325b35,1551755052145,769,-7169.0,-7681.0,6911.0,0.0,0.0,0.0,0.0,0.0,0.0,0
76f897717d325b35,1551755052235,770,-7169.0,-7681.0,6911.0,0.0,0.0,0.0,0.0,0.0,0.0,0
76f897717d325b35,1551755052295,771,-7169.0,-7681.0,6911.0,0.0,0.0,0.0,0.0,0.0,0.0,0
76f897717d325b35,1551755052355,772,-7169.0,-7681.0,6911.0,0.0,0.0,0.0,0.0,0.0,0.0,0
76f897717d325b35,1551755052415,773,-6913.0,-7681.0,6911.0,0.0,0.0,0.0,0.0,0.0,0.0,0
76f897717d325b35,1551755052475,774,-7169.0,-7681.0,6911.0,0.0,0.0,0.0,0.0,0.0,0.0,0
76f897717d325b35,1551755052565,775,-6913.0,-7681.0,6911.0,0.0,0.0,0.0,0.0,0.0,0.0,0
76f897717d325b35,1551755052625,776,-6913.0,-7681.0,6911.0,0.0,0.0,0.0,0.0,0.0,0.0,0
76f897717d325b35,1551755052685,777,-6913.0,-7681.0,6911.0,0.0,0.0,0.0,0.0,0.0,0.0,0
76f897717d325b35,1551755052745,778,-6913.0,-7681.0,6911.0,0.0,0.0,0.0,0.0,0.0,0.0,0
76f897717d325b35,1551755052835,779,-6913.0,-7681.0,6911.0,0.0,0.0,0.0,0.0,0.0,0.0,0
76f897717d325b35,1551755052895,780,-6913.0,-7681.0,6911.0,0.0,0.0,0.0,0.0,0.0,0.0,0
76f897717d325b35,1551755052955,781,-6913.0,-7681.0,6911.0,0.0,0.0,0.0,0.0,0.0,0.0,0
76f897717d325b35,1551755053015,782,-6913.0,-7681.0,6911.0,0.0,0.0,0.0,0.0,0.0,0.0,0
76f897717d325b35,1551755053075,783,-6913.0,-7681.0,6911.0,0.0,0.0,0.0,0.0,0.0,0.0,0
76f897717d325b35,1551755053165,784,-6913.0,-7681.0,6911.0,0.0,0.0,0.0,0.0,0.0,0.0,0
76f897717d325b35,1551755053225,785,-6913.0,-7681.0,6911.0,0.0,0.0,0.0,0.0,0.0,0.0,0
76f897717d325b35,1551755053285,786,-6913.0,-7681.0,6911.0,0.0,0.0,0.0,0.0,0.0,0.0,0
76f897717d325b35,1551755053345,787,-6913.0,-7681.0,6911.0,0.0,0.0,0.0,0.0,0.0,0.0,0
76f897717d325b35,1551755053405,788,-6913.0,-7681.0,6911.0,0.0,0.0,0.0,0.0,0.0,0.0,0
76f897717d325b35,1551755053495,789,-6913.0,-7681.0,6911.0,0.0,0.0,0.0,0.0,0.0,0.0,0
76f897717d325b35,1551755053555,790,-6913.0,-7681.0,6911.0,0.0,0.0,0.0,0.0,0.0,0.0,0
76f897717d325b35,1551755053615,791,-6913.0,-7681.0,6911.0,0.0,0.0,0.0,0.0,0.0,0.0,0
76f897717d325b35,1551755053675,792,-6913.0,-7681.0,6911.0,0.0,0.0,0.0,0.0,0.0,0.0,0
76f897717d325b35,1551755053735,793,-6913.0,-7681.0,6911.0,0.0,0.0,0.0,0.0,0.0,0.0,0
76f897717d325b35,1551755053825,794,-6913.0,-7681.0,6911.0,0.0,0.0,0.0,0.0,0.0,0.0,0
76f897717d325b35,1551755053885,795,-6913.0,-7681.0,6911.0,0.0,0.0,0.0,0.0,0.0,0.0,0
76f897717d325b35,1551755053945,796,-6913.0,-7681.0,6911.0,0.0,0.0,0.0,0.0,0.0,0.0,0
76f897717d325b35,1551755054005,797,-6913.0,-7681.0,6911.0,0.0,0.0,0.0,0.0,0.0,0.0,0
76f897717d325b35,1551755054065,798,-6913.0,-7681.0,6911.0,0.0,0.0,0.0,0.0,0.0,0.0,0
76f897717d325b35,1551755054155,799,-6913.0,-7681.0,6911.0,0.0,0.0,0.0,0.0,0.0,0.0,0
76f897717d325b35,1551755054215,800,-6913.0,-7681.0,6911.0,0.0,0.0,0.0,0.0,0.0,0.0,0
76f897717d325b35,1551755054275,801,-6913.0,-7681.0,6911.0,0.0,0.0,0.0,0.0,0.0,0.0,0
76f897717d325b35,1551755054335,802,-6913.0,-7681.0,6911.0,0.0,0.0,0.0,0.0,0.0,0.0,0
76f897717d325b35,1551755054395,803,-6913.0,-7681.0,6911.0,0.0,0.0,0.0,0.0,0.0,0.0,0
76f897717d325b35,1551755054485,804,-6913.0,-7681.0,6911.0,0.0,0.0,0.0,0.0,0.0,0.0,0
76f897717d325b35,1551755054545,805,-7169.0,-7681.0,6911.0,0.0,0.0,0.0,0.0,0.0,0.0,0
76f897717d325b35,1551755054605,806,-6913.0,-7681.0,6911.0,0.0,0.0,0.0,0.0,0.0,0.0,0
76f897717d325b35,1551755054665,807,-6913.0,-7681.0,6911.0,0.0,0.0,0.0,0.0,0.0,0.0,0
76f897717d325b35,1551755054725,808,-6913.0,-7681.0,6911.0,0.0,0.0,0.0,0.0,0.0,0.0,0
76f897717d325b35,1551755054815,809,-6913.0,-7681.0,6911.0,0.0,0.0,0.0,0.0,0.0,0.0,0
76f897717d325b35,1551755054875,810,-6913.0,-7681.0,6911.0,0.0,0.0,0.0,0.0,0.0,0.0,0
76f897717d325b35,1551755054935,811,-6913.0,-7681.0,6911.0,0.0,0.0,0.0,0.0,0.0,0.0,0
76f897717d325b35,1551755054995,812,-6913.0,-7681.0,6911.0,0.0,0.0,0.0,0.0,0.0,0.0,0
76f897717d325b35,1551755055055,813,-6913.0,-7681.0,6911.0,0.0,0.0,0.0,0.0,0.0,0.0,0
76f897717d325b35,1551755055145,814,-6913.0,-7681.0,6911.0,0.0,0.0,0.0,0.0,0.0,0.0,0
76f897717d325b35,1551755055205,815,-6913.0,-7681.0,6911.0,0.0,0.0,0.0,0.0,0.0,0.0,0
76f897717d325b35,1551755055265,816,-6913.0,-7681.0,6911.0,0.0,0.0,0.0,0.0,0.0,0.0,0
76f897717d325b35,1551755055325,817,-6913.0,-7681.0,6911.0,0.0,0.0,0.0,0.0,0.0,0.0,0
76f897717d325b35,1551755055385,818,-6913.0,-7681.0,6655.0,0.0,0.0,0.0,0.0,0.0,0.0,0
76f897717d325b35,1551755055475,819,-6913.0,-7681.0,6655.0,0.0,0.0,0.0,0.0,0.0,0.0,0
76f897717d325b35,1551755055535,820,-6913.0,-7681.0,6655.0,0.0,0.0,0.0,0.0,0.0,0.0,0
76f897717d325b35,1551755055595,821,-6657.0,-7681.0,6655.0,0.0,0.0,0.0,0.0,0.0,0.0,0
76f897717d325b35,1551755055655,822,-6913.0,-7681.0,6655.0,0.0,0.0,0.0,0.0,0.0,0.0,0
76f897717d325b35,1551755055715,823,-6913.0,-7681.0,6655.0,0.0,0.0,0.0,0.0,0.0,0.0,0
76f897717d325b35,1551755055805,824,-6913.0,-7681.0,6655.0,0.0,0.0,0.0,0.0,0.0,0.0,0
76f897717d325b35,1551755055895,825,-6913.0,-7681.0,6655.0,0.0,0.0,0.0,0.0,0.0,0.0,0
76f897717d325b35,1551755055925,826,-6913.0,-7681.0,6655.0,0.0,0.0,0.0,0.0,0.0,0.0,0
76f897717d325b35,1551755055985,827,-6913.0,-7681.0,6655.0,0.0,0.0,0.0,0.0,0.0,0.0,0
76f897717d325b35,1551755056045,828,-6913.0,-7681.0,6655.0,0.0,0.0,0.0,0.0,0.0,0.0,0
76f897717d325b35,1551755056135,829,-6913.0,-7681.0,6911.0,0.0,0.0,0.0,0.0,0.0,0.0,0
76f897717d325b35,1551755056195,830,-6913.0,-7681.0,6911.0,0.0,0.0,0.0,0.0,0.0,0.0,0
76f897717d325b35,1551755056255,831,-6913.0,-7681.0,6655.0,0.0,0.0,0.0,0.0,0.0,0.0,0
76f897717d325b35,1551755056315,832,-6913.0,-7681.0,6655.0,0.0,0.0,0.0,0.0,0.0,0.0,0
76f897717d325b35,1551755056375,833,-6913.0,-7681.0,6911.0,0.0,0.0,0.0,0.0,0.0,0.0,0
76f897717d325b35,1551755056465,834,-6913.0,-7681.0,6655.0,0.0,0.0,0.0,0.0,0.0,0.0,0
76f897717d325b35,1551755056555,835,-6913.0,-7681.0,6655.0,0.0,0.0,0.0,0.0,0.0,0.0,0
76f897717d325b35,1551755056585,836,-6913.0,-7681.0,6911.0,0.0,0.0,0.0,0.0,0.0,0.0,0
76f897717d325b35,1551755056644,837,-6913.0,-7425.0,6655.0,0.0,0.0,0.0,0.0,0.0,0.0,0
76f897717d325b35,1551755056705,838,-6913.0,-7681.0,6655.0,0.0,0.0,0.0,0.0,0.0,0.0,0
76f897717d325b35,1551755056795,839,-6913.0,-7681.0,6911.0,0.0,0.0,0.0,0.0,0.0,0.0,0
76f897717d325b35,1551755056855,840,-6913.0,-7681.0,6911.0,0.0,0.0,0.0,0.0,0.0,0.0,0
76f897717d325b35,1551755056915,841,-6913.0,-7681.0,6655.0,0.0,0.0,0.0,0.0,0.0,0.0,0
76f897717d325b35,1551755056974,842,-6913.0,-7681.0,6655.0,0.0,0.0,0.0,0.0,0.0,0.0,0
76f897717d325b35,1551755057035,843,-6913.0,-7681.0,6655.0,0.0,0.0,0.0,0.0,0.0,0.0,0
76f897717d325b35,1551755057125,844,-6913.0,-7681.0,6655.0,0.0,0.0,0.0,0.0,0.0,0.0,0
76f897717d325b35,1551755057185,845,-6913.0,-7681.0,6655.0,0.0,0.0,0.0,0.0,0.0,0.0,0
76f897717d325b35,1551755057245,846,-6913.0,-7681.0,6655.0,0.0,0.0,0.0,0.0,0.0,0.0,0
76f897717d325b35,1551755057305,847,-6913.0,-7681.0,6655.0,0.0,0.0,0.0,0.0,0.0,0.0,0
76f897717d325b35,1551755057365,848,-6913.0,-7681.0,6655.0,0.0,0.0,0.0,0.0,0.0,0.0,0
76f897717d325b35,1551755057485,849,-6913.0,-7681.0,6655.0,0.0,0.0,0.0,0.0,0.0,0.0,0
76f897717d325b35,1551755057515,850,-6913.0,-7681.0,6655.0,0.0,0.0,0.0,0.0,0.0,0.0,0
76f897717d325b35,1551755057575,851,-6913.0,-7681.0,6655.0,0.0,0.0,0.0,0.0,0.0,0.0,0
76f897717d325b35,1551755057665,852,-6913.0,-7681.0,6655.0,0.0,0.0,0.0,0.0,0.0,0.0,0
76f897717d325b35,1551755057695,853,-6913.0,-7681.0,6655.0,0.0,0.0,0.0,0.0,0.0,0.0,0
76f897717d325b35,1551755057785,854,-6913.0,-7681.0,6655.0,0.0,0.0,0.0,0.0,0.0,0.0,0
76f897717d325b35,1551755057845,855,-6913.0,-7681.0,6655.0,0.0,0.0,0.0,0.0,0.0,0.0,0
76f897717d325b35,1551755057905,856,-6913.0,-7681.0,6655.0,0.0,0.0,0.0,0.0,0.0,0.0,0
76f897717d325b35,1551755057964,857,-6913.0,-7681.0,6655.0,0.0,0.0,0.0,0.0,0.0,0.0,0
76f897717d325b35,1551755058025,858,-6913.0,-7681.0,6655.0,0.0,0.0,0.0,0.0,0.0,0.0,0
76f897717d325b35,1551755058115,859,-6913.0,-7681.0,6655.0,0.0,0.0,0.0,0.0,0.0,0.0,0
76f897717d325b35,1551755058175,860,-6913.0,-7681.0,6655.0,0.0,0.0,0.0,0.0,0.0,0.0,0
76f897717d325b35,1551755058235,861,-6913.0,-7681.0,6655.0,0.0,0.0,0.0,0.0,0.0,0.0,0
76f897717d325b35,1551755058295,862,-6913.0,-7681.0,6655.0,0.0,0.0,0.0,0.0,0.0,0.0,0
76f897717d325b35,1551755058355,863,-6913.0,-7681.0,6655.0,0.0,0.0,0.0,0.0,0.0,0.0,0
76f897717d325b35,1551755058444,864,-6913.0,-7681.0,6655.0,0.0,0.0,0.0,0.0,0.0,0.0,0
76f897717d325b35,1551755058505,865,-6913.0,-7681.0,6655.0,0.0,0.0,0.0,0.0,0.0,0.0,0
76f897717d325b35,1551755058565,866,-6913.0,-7681.0,6655.0,0.0,0.0,0.0,0.0,0.0,0.0,0
76f897717d325b35,1551755058625,867,-6913.0,-7681.0,6655.0,0.0,0.0,0.0,0.0,0.0,0.0,0
76f897717d325b35,1551755058684,868,-6913.0,-7681.0,6911.0,0.0,0.0,0.0,0.0,0.0,0.0,0
76f897717d325b35,1551755058686,869,-6913.0,-7681.0,6911.0,0.0,0.0,0.0,0.0,0.0,0.0,0
76f897717d325b35,1551755058775,870,-6913.0,-7681.0,6655.0,0.0,0.0,0.0,0.0,0.0,0.0,0
76f897717d325b35,1551755058835,871,-6913.0,-7681.0,6655.0,0.0,0.0,0.0,0.0,0.0,0.0,0
76f897717d325b35,1551755058895,872,-6913.0,-7681.0,6655.0,0.0,0.0,0.0,0.0,0.0,0.0,0
76f897717d325b35,1551755058955,873,-6913.0,-7681.0,6655.0,0.0,0.0,0.0,0.0,0.0,0.0,0
76f897717d325b35,1551755059015,874,-6913.0,-7681.0,6655.0,0.0,0.0,0.0,0.0,0.0,0.0,0
76f897717d325b35,1551755059105,875,-6913.0,-7681.0,6911.0,0.0,0.0,0.0,0.0,0.0,0.0,0
76f897717d325b35,1551755059165,876,-6913.0,-7681.0,6655.0,0.0,0.0,0.0,0.0,0.0,0.0,0
76f897717d325b35,1551755059225,877,-6913.0,-7681.0,6655.0,0.0,0.0,0.0,0.0,0.0,0.0,0
76f897717d325b35,1551755059285,878,-6913.0,-7681.0,6911.0,0.0,0.0,0.0,0.0,0.0,0.0,0
76f897717d325b35,1551755059344,879,-6913.0,-7681.0,6655.0,0.0,0.0,0.0,0.0,0.0,0.0,0
76f897717d325b35,1551755059435,880,-6913.0,-7681.0,6911.0,0.0,0.0,0.0,0.0,0.0,0.0,0
76f897717d325b35,1551755059495,881,-6913.0,-7681.0,6911.0,0.0,0.0,0.0,0.0,0.0,0.0,0
76f897717d325b35,1551755059555,882,-6913.0,-7681.0,6911.0,0.0,0.0,0.0,0.0,0.0,0.0,0
76f897717d325b35,1551755059615,883,-6913.0,-7681.0,6655.0,0.0,0.0,0.0,0.0,0.0,0.0,0
76f897717d325b35,1551755059675,884,-6913.0,-7681.0,6655.0,0.0,0.0,0.0,0.0,0.0,0.0,0
76f897717d325b35,1551755059765,885,-6913.0,-7681.0,6655.0,0.0,0.0,0.0,0.0,0.0,0.0,0
76f897717d325b35,1551755059825,886,-6913.0,-7681.0,6655.0,0.0,0.0,0.0,0.0,0.0,0.0,0
76f897717d325b35,1551755059885,887,-6913.0,-7681.0,6655.0,0.0,0.0,0.0,0.0,0.0,0.0,0
76f897717d325b35,1551755059945,888,-6913.0,-7681.0,6655.0,0.0,0.0,0.0,0.0,0.0,0.0,0
76f897717d325b35,1551755060005,889,-6913.0,-7681.0,6655.0,0.0,0.0,0.0,0.0,0.0,0.0,0
76f897717d325b35,1551755060095,890,-6913.0,-7681.0,6655.0,0.0,0.0,0.0,0.0,0.0,0.0,0
76f897717d325b35,1551755060155,891,-6913.0,-7681.0,6655.0,0.0,0.0,0.0,0.0,0.0,0.0,0
76f897717d325b35,1551755060215,892,-6913.0,-7681.0,6911.0,0.0,0.0,0.0,0.0,0.0,0.0,0
76f897717d325b35,1551755060275,893,-6913.0,-7681.0,6655.0,0.0,0.0,0.0,0.0,0.0,0.0,0
76f897717d325b35,1551755060334,894,-6913.0,-7681.0,6655.0,0.0,0.0,0.0,0.0,0.0,0.0,0
76f897717d325b35,1551755060425,895,-6913.0,-7681.0,6655.0,0.0,0.0,0.0,0.0,0.0,0.0,0
76f897717d325b35,1551755060485,896,-6913.0,-7681.0,6655.0,0.0,0.0,0.0,0.0,0.0,0.0,0
76f897717d325b35,1551755060544,897,-6913.0,-7681.0,6911.0,0.0,0.0,0.0,0.0,0.0,0.0,0
76f897717d325b35,1551755060605,898,-6913.0,-7681.0,6911.0,0.0,0.0,0.0,0.0,0.0,0.0,0
76f897717d325b35,1551755060665,899,-6913.0,-7681.0,6655.0,0.0,0.0,0.0,0.0,0.0,0.0,0
76f897717d325b35,1551755060755,900,-6913.0,-7681.0,6655.0,0.0,0.0,0.0,0.0,0.0,0.0,0
76f897717d325b35,1551755060815,901,-6913.0,-7681.0,6655.0,0.0,0.0,0.0,0.0,0.0,0.0,0
76f897717d325b35,1551755060875,902,-6913.0,-7681.0,6911.0,0.0,0.0,0.0,0.0,0.0,0.0,0
76f897717d325b35,1551755060964,903,-6913.0,-7681.0,6911.0,0.0,0.0,0.0,0.0,0.0,0.0,0
76f897717d325b35,1551755060994,904,-6913.0,-7681.0,6655.0,0.0,0.0,0.0,0.0,0.0,0.0,0
76f897717d325b35,1551755061085,905,-6913.0,-7681.0,6911.0,0.0,0.0,0.0,0.0,0.0,0.0,0
76f897717d325b35,1551755061144,906,-6913.0,-7681.0,6911.0,0.0,0.0,0.0,0.0,0.0,0.0,0
76f897717d325b35,1551755061204,907,-6913.0,-7681.0,6911.0,0.0,0.0,0.0,0.0,0.0,0.0,0
76f897717d325b35,1551755061265,908,-6913.0,-7681.0,6655.0,0.0,0.0,0.0,0.0,0.0,0.0,0
76f897717d325b35,1551755061325,909,-6913.0,-7681.0,6911.0,0.0,0.0,0.0,0.0,0.0,0.0,0
76f897717d325b35,1551755061444,910,-6913.0,-7681.0,6655.0,0.0,0.0,0.0,0.0,0.0,0.0,0
76f897717d325b35,1551755061475,911,-6913.0,-7681.0,6655.0,0.0,0.0,0.0,0.0,0.0,0.0,0
76f897717d325b35,1551755061535,912,-6913.0,-7681.0,6911.0,0.0,0.0,0.0,0.0,0.0,0.0,0
76f897717d325b35,1551755061594,913,-6913.0,-7681.0,6655.0,0.0,0.0,0.0,0.0,0.0,0.0,0
76f897717d325b35,1551755061655,914,-6913.0,-7681.0,6655.0,0.0,0.0,0.0,0.0,0.0,0.0,0
76f897717d325b35,1551755061744,915,-6913.0,-7681.0,6655.0,0.0,0.0,0.0,0.0,0.0,0.0,0
76f897717d325b35,1551755061805,916,-6913.0,-7681.0,6911.0,0.0,0.0,0.0,0.0,0.0,0.0,0
76f897717d325b35,1551755061865,917,-6913.0,-7681.0,6655.0,0.0,0.0,0.0,0.0,0.0,0.0,0
76f897717d325b35,1551755061925,918,-6913.0,-7681.0,6911.0,0.0,0.0,0.0,0.0,0.0,0.0,0
76f897717d325b35,1551755061985,919,-6913.0,-7681.0,6655.0,0.0,0.0,0.0,0.0,0.0,0.0,0
76f897717d325b35,1551755062075,920,-6913.0,-7681.0,6655.0,0.0,0.0,0.0,0.0,0.0,0.0,0
76f897717d325b35,1551755062135,921,-6913.0,-7681.0,6655.0,0.0,0.0,0.0,0.0,0.0,0.0,0
76f897717d325b35,1551755062195,922,-6913.0,-7681.0,6655.0,0.0,0.0,0.0,0.0,0.0,0.0,0
76f897717d325b35,1551755062255,923,-6913.0,-7681.0,6911.0,0.0,0.0,0.0,0.0,0.0,0.0,0
76f897717d325b35,1551755062315,924,-6913.0,-7681.0,6911.0,0.0,0.0,0.0,0.0,0.0,0.0,0
76f897717d325b35,1551755062405,925,-6913.0,-7681.0,6655.0,0.0,0.0,0.0,0.0,0.0,0.0,0
76f897717d325b35,1551755062464,926,-6913.0,-7681.0,6911.0,0.0,0.0,0.0,0.0,0.0,0.0,0
76f897717d325b35,1551755062525,927,-6913.0,-7681.0,6655.0,0.0,0.0,0.0,0.0,0.0,0.0,0
76f897717d325b35,1551755062584,928,-6913.0,-7681.0,6655.0,0.0,0.0,0.0,0.0,0.0,0.0,0
76f897717d325b35,1551755062644,929,-6913.0,-7681.0,6911.0,0.0,0.0,0.0,0.0,0.0,0.0,0
76f897717d325b35,1551755062735,930,-6913.0,-7681.0,6911.0,0.0,0.0,0.0,0.0,0.0,0.0,0
76f897717d325b35,1551755062795,931,-6913.0,-7681.0,6655.0,0.0,0.0,0.0,0.0,0.0,0.0,0
76f897717d325b35,1551755062854,932,-6913.0,-7681.0,6911.0,0.0,0.0,0.0,0.0,0.0,0.0,0
76f897717d325b35,1551755062915,933,-6913.0,-7681.0,6655.0,0.0,0.0,0.0,0.0,0.0,0.0,0
76f897717d325b35,1551755063005,934,-6913.0,-7681.0,6655.0,0.0,0.0,0.0,0.0,0.0,0.0,0
76f897717d325b35,1551755063065,935,-6913.0,-7681.0,6655.0,0.0,0.0,0.0,0.0,0.0,0.0,0
76f897717d325b35,1551755063125,936,-6913.0,-7681.0,6911.0,0.0,0.0,0.0,0.0,0.0,0.0,0
76f897717d325b35,1551755063185,937,-6913.0,-7681.0,6655.0,0.0,0.0,0.0,0.0,0.0,0.0,0
76f897717d325b35,1551755063244,938,-6913.0,-7681.0,6655.0,0.0,0.0,0.0,0.0,0.0,0.0,0
76f897717d325b35,1551755063305,939,-6913.0,-7681.0,6911.0,0.0,0.0,0.0,0.0,0.0,0.0,0
76f897717d325b35,1551755063395,940,-6913.0,-7681.0,6655.0,0.0,0.0,0.0,0.0,0.0,0.0,0
76f897717d325b35,1551755063455,941,-6913.0,-7681.0,6911.0,0.0,0.0,0.0,0.0,0.0,0.0,0
76f897717d325b35,1551755063515,942,-6913.0,-7681.0,6911.0,0.0,0.0,0.0,0.0,0.0,0.0,0
76f897717d325b35,1551755063575,943,-6913.0,-7681.0,6911.0,0.0,0.0,0.0,0.0,0.0,0.0,0
76f897717d325b35,1551755063635,944,-6913.0,-7681.0,6911.0,0.0,0.0,0.0,0.0,0.0,0.0,0
76f897717d325b35,1551755063724,945,-6913.0,-7681.0,6655.0,0.0,0.0,0.0,0.0,0.0,0.0,0
76f897717d325b35,1551755063785,946,-6913.0,-7681.0,6911.0,0.0,0.0,0.0,0.0,0.0,0.0,0
76f897717d325b35,1551755063844,947,-6913.0,-7681.0,6655.0,0.0,0.0,0.0,0.0,0.0,0.0,0
76f897717d325b35,1551755063905,948,-6913.0,-7681.0,6911.0,0.0,0.0,0.0,0.0,0.0,0.0,0
76f897717d325b35,1551755063964,949,-6913.0,-7681.0,6911.0,0.0,0.0,0.0,0.0,0.0,0.0,0
76f897717d325b35,1551755064055,950,-6913.0,-7681.0,6911.0,0.0,0.0,0.0,0.0,0.0,0.0,0
76f897717d325b35,1551755064115,951,-6913.0,-7681.0,6655.0,0.0,0.0,0.0,0.0,0.0,0.0,0
76f897717d325b35,1551755064175,952,-6913.0,-7681.0,6911.0,0.0,0.0,0.0,0.0,0.0,0.0,0
76f897717d325b35,1551755064234,953,-6913.0,-7681.0,6911.0,0.0,0.0,0.0,0.0,0.0,0.0,0
76f897717d325b35,1551755064295,954,-6913.0,-7681.0,6655.0,0.0,0.0,0.0,0.0,0.0,0.0,0
76f897717d325b35,1551755064385,955,-6913.0,-7681.0,6655.0,0.0,0.0,0.0,0.0,0.0,0.0,0
76f897717d325b35,1551755064444,956,-6913.0,-7681.0,6655.0,0.0,0.0,0.0,0.0,0.0,0.0,0
76f897717d325b35,1551755064505,957,-6913.0,-7681.0,6911.0,0.0,0.0,0.0,0.0,0.0,0.0,0
76f897717d325b35,1551755064565,958,-6913.0,-7681.0,6655.0,0.0,0.0,0.0,0.0,0.0,0.0,0
76f897717d325b35,1551755064625,959,-6913.0,-7681.0,6911.0,0.0,0.0,0.0,0.0,0.0,0.0,0
76f897717d325b35,1551755064715,960,-6913.0,-7681.0,6655.0,0.0,0.0,0.0,0.0,0.0,0.0,0
76f897717d325b35,1551755064775,961,-6913.0,-7681.0,6911.0,0.0,0.0,0.0,0.0,0.0,0.0,0
76f897717d325b35,1551755064835,962,-6913.0,-7681.0,6655.0,0.0,0.0,0.0,0.0,0.0,0.0,0
76f897717d325b35,1551755064895,963,-6913.0,-7681.0,6911.0,0.0,0.0,0.0,0.0,0.0,0.0,0
76f897717d325b35,1551755064954,964,-6913.0,-7681.0,6655.0,0.0,0.0,0.0,0.0,0.0,0.0,0
76f897717d325b35,1551755064958,965,-6913.0,-7681.0,6655.0,0.0,0.0,0.0,0.0,0.0,0.0,0
76f897717d325b35,1551755065044,966,-6913.0,-7681.0,6911.0,0.0,0.0,0.0,0.0,0.0,0.0,0
76f897717d325b35,1551755065104,967,-6913.0,-7681.0,6655.0,0.0,0.0,0.0,0.0,0.0,0.0,0
76f897717d325b35,1551755065165,968,-6913.0,-7681.0,6911.0,0.0,0.0,0.0,0.0,0.0,0.0,0
76f897717d325b35,1551755065225,969,-6913.0,-7681.0,6655.0,0.0,0.0,0.0,0.0,0.0,0.0,0
76f897717d325b35,1551755065285,970,-6913.0,-7681.0,6911.0,0.0,0.0,0.0,0.0,0.0,0.0,0
76f897717d325b35,1551755065375,971,-6913.0,-7681.0,6911.0,0.0,0.0,0.0,0.0,0.0,0.0,0
76f897717d325b35,1551755065435,972,-6913.0,-7681.0,6911.0,0.0,0.0,0.0,0.0,0.0,0.0,0
76f897717d325b35,1551755065495,973,-6913.0,-7681.0,6655.0,0.0,0.0,0.0,0.0,0.0,0.0,0
76f897717d325b35,1551755065555,974,-6913.0,-7681.0,6911.0,0.0,0.0,0.0,0.0,0.0,0.0,0
76f897717d325b35,1551755065614,975,-6913.0,-7681.0,6911.0,0.0,0.0,0.0,0.0,0.0,0.0,0
76f897717d325b35,1551755065615,976,-6913.0,-7681.0,6911.0,0.0,0.0,0.0,0.0,0.0,0.0,0
76f897717d325b35,1551755065705,977,-6913.0,-7681.0,6911.0,0.0,0.0,0.0,0.0,0.0,0.0,0
76f897717d325b35,1551755065765,978,-6913.0,-7681.0,6911.0,0.0,0.0,0.0,0.0,0.0,0.0,0
76f897717d325b35,1551755065825,979,-6913.0,-7681.0,6911.0,0.0,0.0,0.0,0.0,0.0,0.0,0
76f897717d325b35,1551755065885,980,-6913.0,-7681.0,6911.0,0.0,0.0,0.0,0.0,0.0,0.0,0
76f897717d325b35,1551755065944,981,-6913.0,-7681.0,6911.0,0.0,0.0,0.0,0.0,0.0,0.0,0
76f897717d325b35,1551755066035,982,-6913.0,-7681.0,6911.0,0.0,0.0,0.0,0.0,0.0,0.0,0
76f897717d325b35,1551755066094,983,-6913.0,-7681.0,6911.0,0.0,0.0,0.0,0.0,0.0,0.0,0
76f897717d325b35,1551755066155,984,-6913.0,-7681.0,6655.0,0.0,0.0,0.0,0.0,0.0,0.0,0
76f897717d325b35,1551755066215,985,-6913.0,-7681.0,6911.0,0.0,0.0,0.0,0.0,0.0,0.0,0
76f897717d325b35,1551755066275,986,-6913.0,-7681.0,6911.0,0.0,0.0,0.0,0.0,0.0,0.0,0
76f897717d325b35,1551755066365,987,-6913.0,-7681.0,6911.0,0.0,0.0,0.0,0.0,0.0,0.0,0
76f897717d325b35,1551755066425,988,-6913.0,-7681.0,6655.0,0.0,0.0,0.0,0.0,0.0,0.0,0
76f897717d325b35,1551755066484,989,-6913.0,-7681.0,6655.0,0.0,0.0,0.0,0.0,0.0,0.0,0
76f897717d325b35,1551755066544,990,-6913.0,-7681.0,6911.0,0.0,0.0,0.0,0.0,0.0,0.0,0
76f897717d325b35,1551755066604,991,-6913.0,-7681.0,6911.0,0.0,0.0,0.0,0.0,0.0,0.0,0
76f897717d325b35,1551755066695,992,-6913.0,-7681.0,6911.0,0.0,0.0,0.0,0.0,0.0,0.0,0
76f897717d325b35,1551755066755,993,-6913.0,-7681.0,6911.0,0.0,0.0,0.0,0.0,0.0,0.0,0
76f897717d325b35,1551755066815,994,-6913.0,-7681.0,6655.0,0.0,0.0,0.0,0.0,0.0,0.0,0
76f897717d325b35,1551755066875,995,-6913.0,-7681.0,6911.0,0.0,0.0,0.0,0.0,0.0,0.0,0
76f897717d325b35,1551755066935,996,-6913.0,-7681.0,6911.0,0.0,0.0,0.0,0.0,0.0,0.0,0
76f897717d325b35,1551755067025,997,-6913.0,-7681.0,6911.0,0.0,0.0,0.0,0.0,0.0,0.0,0
76f897717d325b35,1551755067085,998,-6913.0,-7681.0,6911.0,0.0,0.0,0.0,0.0,0.0,0.0,0
76f897717d325b35,1551755067144,999,-6913.0,-7681.0,6911.0,0.0,0.0,0.0,0.0,0.0,0.0,0
76f897717d325b35,1551755067204,1000,-6913.0,-7681.0,6911.0,0.0,0.0,0.0,0.0,0.0,0.0,0
76f897717d325b35,1551755067265,1001,-6913.0,-7681.0,6911.0,0.0,0.0,0.0,0.0,0.0,0.0,0
76f897717d325b35,1551755067354,1002,-6913.0,-7681.0,6655.0,0.0,0.0,0.0,0.0,0.0,0.0,0
76f897717d325b35,1551755067415,1003,-6913.0,-7681.0,6911.0,0.0,0.0,0.0,0.0,0.0,0.0,0
76f897717d325b35,1551755067475,1004,-6913.0,-7681.0,6911.0,0.0,0.0,0.0,0.0,0.0,0.0,0
76f897717d325b35,1551755067535,1005,-6913.0,-7681.0,6911.0,0.0,0.0,0.0,0.0,0.0,0.0,0
76f897717d325b35,1551755067595,1006,-6913.0,-7681.0,6911.0,0.0,0.0,0.0,0.0,0.0,0.0,0
76f897717d325b35,1551755067685,1007,-6913.0,-7681.0,6655.0,0.0,0.0,0.0,0.0,0.0,0.0,0
76f897717d325b35,1551755067744,1008,-6913.0,-7681.0,6911.0,0.0,0.0,0.0,0.0,0.0,0.0,0
76f897717d325b35,1551755067805,1009,-6913.0,-7681.0,6911.0,0.0,0.0,0.0,0.0,0.0,0.0,0
76f897717d325b35,1551755067864,1010,-6913.0,-7681.0,6911.0,0.0,0.0,0.0,0.0,0.0,0.0,0
76f897717d325b35,1551755067925,1011,-6913.0,-7681.0,6655.0,0.0,0.0,0.0,0.0,0.0,0.0,0
76f897717d325b35,1551755068015,1012,-6913.0,-7681.0,6911.0,0.0,0.0,0.0,0.0,0.0,0.0,0
76f897717d325b35,1551755068104,1013,-6913.0,-7681.0,6911.0,0.0,0.0,0.0,0.0,0.0,0.0,0
76f897717d325b35,1551755068135,1014,-6913.0,-7681.0,6911.0,0.0,0.0,0.0,0.0,0.0,0.0,0
76f897717d325b35,1551755068195,1015,-6913.0,-7681.0,6911.0,0.0,0.0,0.0,0.0,0.0,0.0,0
76f897717d325b35,1551755068255,1016,-6913.0,-7681.0,6911.0,0.0,0.0,0.0,0.0,0.0,0.0,0
76f897717d325b35,1551755068344,1017,-6913.0,-7681.0,6911.0,0.0,0.0,0.0,0.0,0.0,0.0,0
76f897717d325b35,1551755068405,1018,-6913.0,-7681.0,6655.0,0.0,0.0,0.0,0.0,0.0,0.0,0
76f897717d325b35,1551755068465,1019,-6913.0,-7681.0,6911.0,0.0,0.0,0.0,0.0,0.0,0.0,0
76f897717d325b35,1551755068524,1020,-6913.0,-7681.0,6911.0,0.0,0.0,0.0,0.0,0.0,0.0,0
76f897717d325b35,1551755068614,1021,-6913.0,-7681.0,6911.0,0.0,0.0,0.0,0.0,0.0,0.0,0
76f897717d325b35,1551755068675,1022,-6913.0,-7681.0,6911.0,0.0,0.0,0.0,0.0,0.0,0.0,0
76f897717d325b35,1551755068734,1023,-6913.0,-7681.0,6911.0,0.0,0.0,0.0,0.0,0.0,0.0,0
76f897717d325b35,1551755068794,1024,-6913.0,-7681.0,6655.0,0.0,0.0,0.0,0.0,0.0,0.0,0
76f897717d325b35,1551755068854,1025,-6913.0,-7681.0,6911.0,0.0,0.0,0.0,0.0,0.0,0.0,0
76f897717d325b35,1551755068915,1026,-6913.0,-7681.0,6911.0,0.0,0.0,0.0,0.0,0.0,0.0,0
76f897717d325b35,1551755069004,1027,-6913.0,-7681.0,6911.0,0.0,0.0,0.0,0.0,0.0,0.0,0
76f897717d325b35,1551755069065,1028,-6913.0,-7681.0,6911.0,0.0,0.0,0.0,0.0,0.0,0.0,0
76f897717d325b35,1551755069125,1029,-6913.0,-7681.0,6911.0,0.0,0.0,0.0,0.0,0.0,0.0,0
76f897717d325b35,1551755069185,1030,-6913.0,-7681.0,6911.0,0.0,0.0,0.0,0.0,0.0,0.0,0
76f897717d325b35,1551755069244,1031,-6913.0,-7681.0,6911.0,0.0,0.0,0.0,0.0,0.0,0.0,0
76f897717d325b35,1551755069335,1032,-6913.0,-7681.0,6911.0,0.0,0.0,0.0,0.0,0.0,0.0,0
76f897717d325b35,1551755069394,1033,-6913.0,-7681.0,6911.0,0.0,0.0,0.0,0.0,0.0,0.0,0
76f897717d325b35,1551755069454,1034,-6913.0,-7681.0,6911.0,0.0,0.0,0.0,0.0,0.0,0.0,0
76f897717d325b35,1551755069514,1035,-6913.0,-7681.0,6911.0,0.0,0.0,0.0,0.0,0.0,0.0,0
76f897717d325b35,1551755069575,1036,-6913.0,-7681.0,6911.0,0.0,0.0,0.0,0.0,0.0,0.0,0
76f897717d325b35,1551755069665,1037,-6913.0,-7681.0,6655.0,0.0,0.0,0.0,0.0,0.0,0.0,0
76f897717d325b35,1551755069724,1038,-6913.0,-7681.0,6911.0,0.0,0.0,0.0,0.0,0.0,0.0,0
76f897717d325b35,1551755069784,1039,-6913.0,-7681.0,6911.0,0.0,0.0,0.0,0.0,0.0,0.0,0
76f897717d325b35,1551755069844,1040,-6913.0,-7681.0,6911.0,0.0,0.0,0.0,0.0,0.0,0.0,0
76f897717d325b35,1551755069904,1041,-6913.0,-7681.0,6911.0,0.0,0.0,0.0,0.0,0.0,0.0,0
76f897717d325b35,1551755069994,1042,-6913.0,-7681.0,6911.0,0.0,0.0,0.0,0.0,0.0,0.0,0
76f897717d325b35,1551755070055,1043,-6913.0,-7681.0,6911.0,0.0,0.0,0.0,0.0,0.0,0.0,0
76f897717d325b35,1551755070115,1044,-6913.0,-7681.0,6911.0,0.0,0.0,0.0,0.0,0.0,0.0,0
76f897717d325b35,1551755070174,1045,-6913.0,-7681.0,6911.0,0.0,0.0,0.0,0.0,0.0,0.0,0
76f897717d325b35,1551755070234,1046,-6913.0,-7681.0,6655.0,0.0,0.0,0.0,0.0,0.0,0.0,0
76f897717d325b35,1551755070324,1047,-6913.0,-7681.0,6911.0,0.0,0.0,0.0,0.0,0.0,0.0,0
76f897717d325b35,1551755070385,1048,-6913.0,-7681.0,6911.0,0.0,0.0,0.0,0.0,0.0,0.0,0
76f897717d325b35,1551755070444,1049,-6913.0,-7681.0,6655.0,0.0,0.0,0.0,0.0,0.0,0.0,0
76f897717d325b35,1551755070504,1050,-6913.0,-7681.0,6911.0,0.0,0.0,0.0,0.0,0.0,0.0,0
76f897717d325b35,1551755070565,1051,-6913.0,-7681.0,6655.0,0.0,0.0,0.0,0.0,0.0,0.0,0
76f897717d325b35,1551755070655,1052,-6913.0,-7681.0,6911.0,0.0,0.0,0.0,0.0,0.0,0.0,0
76f897717d325b35,1551755070715,1053,-6913.0,-7681.0,6911.0,0.0,0.0,0.0,0.0,0.0,0.0,0
76f897717d325b35,1551755070774,1054,-6913.0,-7681.0,6911.0,0.0,0.0,0.0,0.0,0.0,0.0,0
76f897717d325b35,1551755070834,1055,-6913.0,-7681.0,6911.0,0.0,0.0,0.0,0.0,0.0,0.0,0
76f897717d325b35,1551755070895,1056,-6913.0,-7681.0,6911.0,0.0,0.0,0.0,0.0,0.0,0.0,0
76f897717d325b35,1551755070984,1057,-6913.0,-7681.0,6911.0,0.0,0.0,0.0,0.0,0.0,0.0,0
76f897717d325b35,1551755071044,1058,-6913.0,-7681.0,6655.0,0.0,0.0,0.0,0.0,0.0,0.0,0
76f897717d325b35,1551755071104,1059,-6913.0,-7681.0,6911.0,0.0,0.0,0.0,0.0,0.0,0.0,0
76f897717d325b35,1551755071165,1060,-6913.0,-7681.0,6911.0,0.0,0.0,0.0,0.0,0.0,0.0,0
76f897717d325b35,1551755071224,1061,-6913.0,-7681.0,6911.0,0.0,0.0,0.0,0.0,0.0,0.0,0
76f897717d325b35,1551755071315,1062,-6913.0,-7681.0,6911.0,0.0,0.0,0.0,0.0,0.0,0.0,0
76f897717d325b35,1551755071374,1063,-6913.0,-7681.0,6911.0,0.0,0.0,0.0,0.0,0.0,0.0,0
76f897717d325b35,1551755071435,1064,-6913.0,-7681.0,6655.0,0.0,0.0,0.0,0.0,0.0,0.0,0
76f897717d325b35,1551755071494,1065,-6913.0,-7681.0,6911.0,0.0,0.0,0.0,0.0,0.0,0.0,0
76f897717d325b35,1551755071584,1066,-6913.0,-7681.0,6655.0,0.0,0.0,0.0,0.0,0.0,0.0,0
76f897717d325b35,1551755071644,1067,-6913.0,-7681.0,6911.0,0.0,0.0,0.0,0.0,0.0,0.0,0
76f897717d325b35,1551755071704,1068,-6913.0,-7681.0,6911.0,0.0,0.0,0.0,0.0,0.0,0.0,0
76f897717d325b35,1551755071764,1069,-6913.0,-7681.0,6911.0,0.0,0.0,0.0,0.0,0.0,0.0,0
76f897717d325b35,1551755071824,1070,-6913.0,-7681.0,6911.0,0.0,0.0,0.0,0.0,0.0,0.0,0
76f897717d325b35,1551755071884,1071,-6913.0,-7681.0,6911.0,0.0,0.0,0.0,0.0,0.0,0.0,0
76f897717d325b35,1551755071974,1072,-6913.0,-7681.0,6911.0,0.0,0.0,0.0,0.0,0.0,0.0,0
76f897717d325b35,1551755072035,1073,-6913.0,-7681.0,6911.0,0.0,0.0,0.0,0.0,0.0,0.0,0
76f897717d325b35,1551755072094,1074,-6657.0,-7681.0,6911.0,0.0,0.0,0.0,0.0,0.0,0.0,0
76f897717d325b35,1551755072154,1075,-6913.0,-7681.0,6911.0,0.0,0.0,0.0,0.0,0.0,0.0,0
76f897717d325b35,1551755072214,1076,-6913.0,-7681.0,6911.0,0.0,0.0,0.0,0.0,0.0,0.0,0
76f897717d325b35,1551755072305,1077,-6913.0,-7681.0,6911.0,0.0,0.0,0.0,0.0,0.0,0.0,0
76f897717d325b35,1551755072364,1078,-6913.0,-7681.0,6911.0,0.0,0.0,0.0,0.0,0.0,0.0,0
76f897717d325b35,1551755072424,1079,-6913.0,-7681.0,6911.0,0.0,0.0,0.0,0.0,0.0,0.0,0
76f897717d325b35,1551755072484,1080,-6913.0,-7681.0,6911.0,0.0,0.0,0.0,0.0,0.0,0.0,0
76f897717d325b35,1551755072544,1081,-6913.0,-7681.0,6911.0,0.0,0.0,0.0,0.0,0.0,0.0,0
76f897717d325b35,1551755072634,1082,-6913.0,-7681.0,6911.0,0.0,0.0,0.0,0.0,0.0,0.0,0
76f897717d325b35,1551755072694,1083,-6913.0,-7681.0,6911.0,0.0,0.0,0.0,0.0,0.0,0.0,0
76f897717d325b35,1551755072754,1084,-6913.0,-7681.0,6911.0,0.0,0.0,0.0,0.0,0.0,0.0,0
76f897717d325b35,1551755072815,1085,-6913.0,-7681.0,6655.0,0.0,0.0,0.0,0.0,0.0,0.0,0
76f897717d325b35,1551755072874,1086,-6913.0,-7681.0,6911.0,0.0,0.0,0.0,0.0,0.0,0.0,0
76f897717d325b35,1551755072964,1087,-6913.0,-7681.0,6655.0,0.0,0.0,0.0,0.0,0.0,0.0,0
76f897717d325b35,1551755073025,1088,-6913.0,-7681.0,6655.0,0.0,0.0,0.0,0.0,0.0,0.0,0
76f897717d325b35,1551755073084,1089,-6913.0,-7681.0,6911.0,0.0,0.0,0.0,0.0,0.0,0.0,0
76f897717d325b35,1551755073144,1090,-6913.0,-7681.0,6911.0,0.0,0.0,0.0,0.0,0.0,0.0,0
76f897717d325b35,1551755073204,1091,-6657.0,-7681.0,6911.0,0.0,0.0,0.0,0.0,0.0,0.0,0
76f897717d325b35,1551755073294,1092,-6913.0,-7681.0,6911.0,0.0,0.0,0.0,0.0,0.0,0.0,0
76f897717d325b35,1551755073354,1093,-6913.0,-7681.0,6911.0,0.0,0.0,0.0,0.0,0.0,0.0,0
76f897717d325b35,1551755073414,1094,-6913.0,-7681.0,6911.0,0.0,0.0,0.0,0.0,0.0,0.0,0
76f897717d325b35,1551755073474,1095,-6913.0,-7681.0,6911.0,0.0,0.0,0.0,0.0,0.0,0.0,0
76f897717d325b35,1551755073534,1096,-6913.0,-7681.0,6911.0,0.0,0.0,0.0,0.0,0.0,0.0,0
76f897717d325b35,1551755073654,1097,-6913.0,-7681.0,6911.0,0.0,0.0,0.0,0.0,0.0,0.0,0
76f897717d325b35,1551755073684,1098,-6657.0,-7681.0,6911.0,0.0,0.0,0.0,0.0,0.0,0.0,0
76f897717d325b35,1551755073744,1099,-6913.0,-7681.0,6911.0,0.0,0.0,0.0,0.0,0.0,0.0,0
76f897717d325b35,1551755073804,1100,-6913.0,-7681.0,6655.0,0.0,0.0,0.0,0.0,0.0,0.0,0
76f897717d325b35,1551755073864,1101,-6913.0,-7681.0,6911.0,0.0,0.0,0.0,0.0,0.0,0.0,0
76f897717d325b35,1551755073955,1102,-6657.0,-7681.0,6911.0,0.0,0.0,0.0,0.0,0.0,0.0,0
76f897717d325b35,1551755074014,1103,-6913.0,-7681.0,6911.0,0.0,0.0,0.0,0.0,0.0,0.0,0
76f897717d325b35,1551755074075,1104,-6913.0,-7681.0,6911.0,0.0,0.0,0.0,0.0,0.0,0.0,0
76f897717d325b35,1551755074134,1105,-6913.0,-7681.0,6911.0,0.0,0.0,0.0,0.0,0.0,0.0,0
76f897717d325b35,1551755074194,1106,-6913.0,-7681.0,6911.0,0.0,0.0,0.0,0.0,0.0,0.0,0
76f897717d325b35,1551755074284,1107,-6913.0,-7937.0,6655.0,0.0,0.0,0.0,0.0,0.0,0.0,0
76f897717d325b35,1551755074344,1108,-6913.0,-7681.0,6655.0,0.0,0.0,0.0,0.0,0.0,0.0,0
76f897717d325b35,1551755074404,1109,-6913.0,-7681.0,6911.0,0.0,0.0,0.0,0.0,0.0,0.0,0
76f897717d325b35,1551755074464,1110,-6913.0,-7681.0,6911.0,0.0,0.0,0.0,0.0,0.0,0.0,0
76f897717d325b35,1551755074525,1111,-6913.0,-7681.0,6911.0,0.0,0.0,0.0,0.0,0.0,0.0,0
76f897717d325b35,1551755074615,1112,-6913.0,-7681.0,6655.0,0.0,0.0,0.0,0.0,0.0,0.0,0
76f897717d325b35,1551755074674,1113,-6913.0,-7681.0,6911.0,0.0,0.0,0.0,0.0,0.0,0.0,0
76f897717d325b35,1551755074765,1114,-6913.0,-7681.0,6655.0,0.0,0.0,0.0,0.0,0.0,0.0,0
76f897717d325b35,1551755074794,1115,-6913.0,-7681.0,6655.0,0.0,0.0,0.0,0.0,0.0,0.0,0
76f897717d325b35,1551755074854,1116,-6913.0,-7681.0,6911.0,0.0,0.0,0.0,0.0,0.0,0.0,0
76f897717d325b35,1551755074944,1117,-6913.0,-7681.0,6911.0,0.0,0.0,0.0,0.0,0.0,0.0,0
76f897717d325b35,1551755075004,1118,-6657.0,-7681.0,6655.0,0.0,0.0,0.0,0.0,0.0,0.0,0
76f897717d325b35,1551755075064,1119,-6913.0,-7681.0,6655.0,0.0,0.0,0.0,0.0,0.0,0.0,0
76f897717d325b35,1551755075124,1120,-6913.0,-7681.0,6911.0,0.0,0.0,0.0,0.0,0.0,0.0,0
76f897717d325b35,1551755075184,1121,-6657.0,-7681.0,6911.0,0.0,0.0,0.0,0.0,0.0,0.0,0
76f897717d325b35,1551755075274,1122,-6913.0,-7681.0,6911.0,0.0,0.0,0.0,0.0,0.0,0.0,0
76f897717d325b35,1551755075364,1123,-6657.0,-7681.0,6911.0,0.0,0.0,0.0,0.0,0.0,0.0,0
76f897717d325b35,1551755075394,1124,-6657.0,-7681.0,6911.0,0.0,0.0,0.0,0.0,0.0,0.0,0
76f897717d325b35,1551755075454,1125,-6657.0,-7681.0,6911.0,0.0,0.0,0.0,0.0,0.0,0.0,0
76f897717d325b35,1551755075514,1126,-6657.0,-7681.0,6911.0,0.0,0.0,0.0,0.0,0.0,0.0,0
76f897717d325b35,1551755075604,1127,-6657.0,-7681.0,6655.0,0.0,0.0,0.0,0.0,0.0,0.0,0
76f897717d325b35,1551755075665,1128,-6913.0,-7681.0,6911.0,0.0,0.0,0.0,0.0,0.0,0.0,0
76f897717d325b35,1551755075724,1129,-6913.0,-7681.0,6911.0,0.0,0.0,0.0,0.0,0.0,0.0,0
76f897717d325b35,1551755075814,1130,-6657.0,-7681.0,6911.0,0.0,0.0,0.0,0.0,0.0,0.0,0
76f897717d325b35,1551755075844,1131,-6913.0,-7937.0,6911.0,0.0,0.0,0.0,0.0,0.0,0.0,0
76f897717d325b35,1551755075934,1132,-6913.0,-7681.0,6911.0,0.0,0.0,0.0,0.0,0.0,0.0,0
76f897717d325b35,1551755075994,1133,-6913.0,-7681.0,6911.0,0.0,0.0,0.0,0.0,0.0,0.0,0
76f897717d325b35,1551755076054,1134,-6913.0,-7681.0,6911.0,0.0,0.0,0.0,0.0,0.0,0.0,0
76f897717d325b35,1551755076114,1135,-6913.0,-7937.0,6911.0,0.0,0.0,0.0,0.0,0.0,0.0,0
76f897717d325b35,1551755076174,1136,-6913.0,-7681.0,6911.0,0.0,0.0,0.0,0.0,0.0,0.0,0
76f897717d325b35,1551755076264,1137,-6657.0,-7681.0,6911.0,0.0,0.0,0.0,0.0,0.0,0.0,0
76f897717d325b35,1551755076324,1138,-6913.0,-7681.0,6911.0,0.0,0.0,0.0,0.0,0.0,0.0,0
76f897717d325b35,1551755076384,1139,-6913.0,-7681.0,6655.0,0.0,0.0,0.0,0.0,0.0,0.0,0
76f897717d325b35,1551755076474,1140,-6913.0,-7681.0,6911.0,0.0,0.0,0.0,0.0,0.0,0.0,0
76f897717d325b35,1551755076534,1141,-6657.0,-7937.0,6911.0,0.0,0.0,0.0,0.0,0.0,0.0,0
76f897717d325b35,1551755076594,1142,-6913.0,-7681.0,6911.0,0.0,0.0,0.0,0.0,0.0,0.0,0
76f897717d325b35,1551755076654,1143,-6657.0,-7681.0,6911.0,0.0,0.0,0.0,0.0,0.0,0.0,0
76f897717d325b35,1551755076714,1144,-6913.0,-7681.0,6911.0,0.0,0.0,0.0,0.0,0.0,0.0,0
76f897717d325b35,1551755076774,1145,-6913.0,-7681.0,6911.0,0.0,0.0,0.0,0.0,0.0,0.0,0
76f897717d325b35,1551755076834,1146,-6913.0,-7681.0,6911.0,0.0,0.0,0.0,0.0,0.0,0.0,0
76f897717d325b35,1551755076924,1147,-6913.0,-7681.0,6655.0,0.0,0.0,0.0,0.0,0.0,0.0,0
76f897717d325b35,1551755076985,1148,-6913.0,-7681.0,6911.0,0.0,0.0,0.0,0.0,0.0,0.0,0
76f897717d325b35,1551755077044,1149,-6657.0,-7681.0,6911.0,0.0,0.0,0.0,0.0,0.0,0.0,0
76f897717d325b35,1551755077134,1150,-6913.0,-7681.0,6911.0,0.0,0.0,0.0,0.0,0.0,0.0,0
76f897717d325b35,1551755077164,1151,-6657.0,-7681.0,6911.0,0.0,0.0,0.0,0.0,0.0,0.0,0
76f897717d325b35,1551755077254,1152,-6913.0,-7681.0,6911.0,0.0,0.0,0.0,0.0,0.0,0.0,0
76f897717d325b35,1551755077314,1153,-6913.0,-7681.0,6911.0,0.0,0.0,0.0,0.0,0.0,0.0,0
76f897717d325b35,1551755077374,1154,-6913.0,-7681.0,6911.0,0.0,0.0,0.0,0.0,0.0,0.0,0
76f897717d325b35,1551755077434,1155,-6913.0,-7681.0,6911.0,0.0,0.0,0.0,0.0,0.0,0.0,0
76f897717d325b35,1551755077494,1156,-6657.0,-7681.0,6911.0,0.0,0.0,0.0,0.0,0.0,0.0,0
76f897717d325b35,1551755077584,1157,-6913.0,-7681.0,6911.0,0.0,0.0,0.0,0.0,0.0,0.0,0
76f897717d325b35,1551755077644,1158,-6657.0,-7681.0,6911.0,0.0,0.0,0.0,0.0,0.0,0.0,0
76f897717d325b35,1551755077704,1159,-6657.0,-7681.0,6911.0,0.0,0.0,0.0,0.0,0.0,0.0,0
76f897717d325b35,1551755077764,1160,-6657.0,-7937.0,6911.0,0.0,0.0,0.0,0.0,0.0,0.0,0
76f897717d325b35,1551755077824,1161,-6913.0,-7681.0,6911.0,0.0,0.0,0.0,0.0,0.0,0.0,0
76f897717d325b35,1551755077914,1162,-6913.0,-7937.0,6911.0,0.0,0.0,0.0,0.0,0.0,0.0,0
76f897717d325b35,1551755077974,1163,-6657.0,-7937.0,6911.0,0.0,0.0,0.0,0.0,0.0,0.0,0
76f897717d325b35,1551755078034,1164,-6657.0,-7937.0,6911.0,0.0,0.0,0.0,0.0,0.0,0.0,0
76f897717d325b35,1551755078094,1165,-6657.0,-7937.0,6911.0,0.0,0.0,0.0,0.0,0.0,0.0,0
76f897717d325b35,1551755078154,1166,-6657.0,-7681.0,6911.0,0.0,0.0,0.0,0.0,0.0,0.0,0
76f897717d325b35,1551755078244,1167,-6657.0,-7937.0,6911.0,0.0,0.0,0.0,0.0,0.0,0.0,0
76f897717d325b35,1551755078305,1168,-6657.0,-7937.0,6911.0,0.0,0.0,0.0,0.0,0.0,0.0,0
76f897717d325b35,1551755078364,1169,-6657.0,-7937.0,6911.0,0.0,0.0,0.0,0.0,0.0,0.0,0
76f897717d325b35,1551755078424,1170,-6913.0,-7937.0,6911.0,0.0,0.0,0.0,0.0,0.0,0.0,0
76f897717d325b35,1551755078484,1171,-6657.0,-7681.0,6911.0,0.0,0.0,0.0,0.0,0.0,0.0,0
76f897717d325b35,1551755078574,1172,-6657.0,-7937.0,6911.0,0.0,0.0,0.0,0.0,0.0,0.0,0
76f897717d325b35,1551755078634,1173,-6657.0,-7681.0,6911.0,0.0,0.0,0.0,0.0,0.0,0.0,0
76f897717d325b35,1551755078694,1174,-6657.0,-7937.0,6911.0,0.0,0.0,0.0,0.0,0.0,0.0,0
76f897717d325b35,1551755078754,1175,-6657.0,-7937.0,6911.0,0.0,0.0,0.0,0.0,0.0,0.0,0
76f897717d325b35,1551755078814,1176,-6657.0,-7937.0,6911.0,0.0,0.0,0.0,0.0,0.0,0.0,0
76f897717d325b35,1551755078904,1177,-6657.0,-7937.0,6911.0,0.0,0.0,0.0,0.0,0.0,0.0,0
76f897717d325b35,1551755078963,1178,-6657.0,-7937.0,6911.0,0.0,0.0,0.0,0.0,0.0,0.0,0
76f897717d325b35,1551755079024,1179,-6913.0,-7937.0,6911.0,0.0,0.0,0.0,0.0,0.0,0.0,0
76f897717d325b35,1551755079084,1180,-6657.0,-7937.0,6911.0,0.0,0.0,0.0,0.0,0.0,0.0,0
76f897717d325b35,1551755079144,1181,-6657.0,-7681.0,6911.0,0.0,0.0,0.0,0.0,0.0,0.0,0
76f897717d325b35,1551755079234,1182,-6657.0,-7937.0,6911.0,0.0,0.0,0.0,0.0,0.0,0.0,0
76f897717d325b35,1551755079294,1183,-6657.0,-7937.0,6911.0,0.0,0.0,0.0,0.0,0.0,0.0,0
76f897717d325b35,1551755079355,1184,-6657.0,-7681.0,6911.0,0.0,0.0,0.0,0.0,0.0,0.0,0
76f897717d325b35,1551755079414,1185,-6657.0,-7681.0,6911.0,0.0,0.0,0.0,0.0,0.0,0.0,0
76f897717d325b35,1551755079474,1186,-6657.0,-7937.0,6911.0,0.0,0.0,0.0,0.0,0.0,0.0,0
76f897717d325b35,1551755079564,1187,-6657.0,-7937.0,6911.0,0.0,0.0,0.0,0.0,0.0,0.0,0
76f897717d325b35,1551755079624,1188,-6657.0,-7937.0,6911.0,0.0,0.0,0.0,0.0,0.0,0.0,0
76f897717d325b35,1551755079714,1189,-6657.0,-7681.0,6911.0,0.0,0.0,0.0,0.0,0.0,0.0,0
76f897717d325b35,1551755079744,1190,-6657.0,-7937.0,6911.0,0.0,0.0,0.0,0.0,0.0,0.0,0
76f897717d325b35,1551755079804,1191,-6657.0,-7681.0,6911.0,0.0,0.0,0.0,0.0,0.0,0.0,0
76f897717d325b35,1551755079924,1192,-6657.0,-7937.0,6911.0,0.0,0.0,0.0,0.0,0.0,0.0,0
76f897717d325b35,1551755079954,1193,-6657.0,-7937.0,6911.0,0.0,0.0,0.0,0.0,0.0,0.0,0
76f897717d325b35,1551755080014,1194,-6657.0,-7937.0,6911.0,0.0,0.0,0.0,0.0,0.0,0.0,0
76f897717d325b35,1551755080074,1195,-6657.0,-7937.0,6911.0,0.0,0.0,0.0,0.0,0.0,0.0,0
76f897717d325b35,1551755080134,1196,-6657.0,-7681.0,6911.0,0.0,0.0,0.0,0.0,0.0,0.0,0
76f897717d325b35,1551755080224,1197,-6657.0,-7681.0,6911.0,0.0,0.0,0.0,0.0,0.0,0.0,0
76f897717d325b35,1551755080284,1198,-6657.0,-7937.0,6911.0,0.0,0.0,0.0,0.0,0.0,0.0,0
76f897717d325b35,1551755080344,1199,-6657.0,-7937.0,6911.0,0.0,0.0,0.0,0.0,0.0,0.0,0
76f897717d325b35,1551755080404,1200,-6657.0,-7937.0,6911.0,0.0,0.0,0.0,0.0,0.0,0.0,0
76f897717d325b35,1551755080464,1201,-6657.0,-7937.0,6911.0,0.0,0.0,0.0,0.0,0.0,0.0,0
76f897717d325b35,1551755080554,1202,-6657.0,-7937.0,6911.0,0.0,0.0,0.0,0.0,0.0,0.0,0
76f897717d325b35,1551755080614,1203,-6657.0,-7937.0,6911.0,0.0,0.0,0.0,0.0,0.0,0.0,0
76f897717d325b35,1551755080674,1204,-6657.0,-7937.0,6911.0,0.0,0.0,0.0,0.0,0.0,0.0,0
76f897717d325b35,1551755080734,1205,-6657.0,-7937.0,6911.0,0.0,0.0,0.0,0.0,0.0,0.0,0
76f897717d325b35,1551755080824,1206,-6657.0,-7937.0,6911.0,0.0,0.0,0.0,0.0,0.0,0.0,0
76f897717d325b35,1551755080884,1207,-6657.0,-7937.0,6911.0,0.0,0.0,0.0,0.0,0.0,0.0,0
76f897717d325b35,1551755080944,1208,-6657.0,-7681.0,6911.0,0.0,0.0,0.0,0.0,0.0,0.0,0
76f897717d325b35,1551755081004,1209,-6657.0,-7937.0,6911.0,0.0,0.0,0.0,0.0,0.0,0.0,0
76f897717d325b35,1551755081064,1210,-6657.0,-7937.0,6911.0,0.0,0.0,0.0,0.0,0.0,0.0,0
76f897717d325b35,1551755081124,1211,-6657.0,-7937.0,6911.0,0.0,0.0,0.0,0.0,0.0,0.0,0
76f897717d325b35,1551755081214,1212,-6657.0,-7937.0,6911.0,0.0,0.0,0.0,0.0,0.0,0.0,0
76f897717d325b35,1551755081274,1213,-6657.0,-7937.0,6911.0,0.0,0.0,0.0,0.0,0.0,0.0,0
76f897717d325b35,1551755081334,1214,-6657.0,-7937.0,6911.0,0.0,0.0,0.0,0.0,0.0,0.0,0
76f897717d325b35,1551755081424,1215,-6657.0,-7937.0,6911.0,0.0,0.0,0.0,0.0,0.0,0.0,0
76f897717d325b35,1551755081454,1216,-6657.0,-7937.0,6911.0,0.0,0.0,0.0,0.0,0.0,0.0,0
76f897717d325b35,1551755081544,1217,-6657.0,-7937.0,6911.0,0.0,0.0,0.0,0.0,0.0,0.0,0
76f897717d325b35,1551755081604,1218,-6657.0,-7937.0,6911.0,0.0,0.0,0.0,0.0,0.0,0.0,0
76f897717d325b35,1551755081664,1219,-6657.0,-7937.0,6911.0,0.0,0.0,0.0,0.0,0.0,0.0,0
76f897717d325b35,1551755081724,1220,-6657.0,-7937.0,6911.0,0.0,0.0,0.0,0.0,0.0,0.0,0
76f897717d325b35,1551755081784,1221,-6657.0,-7937.0,6911.0,0.0,0.0,0.0,0.0,0.0,0.0,0
76f897717d325b35,1551755081874,1222,-6657.0,-7937.0,6911.0,0.0,0.0,0.0,0.0,0.0,0.0,0
76f897717d325b35,1551755081934,1223,-6657.0,-7937.0,6911.0,0.0,0.0,0.0,0.0,0.0,0.0,0
76f897717d325b35,1551755081994,1224,-6657.0,-7937.0,6911.0,0.0,0.0,0.0,0.0,0.0,0.0,0
76f897717d325b35,1551755082054,1225,-6657.0,-7937.0,6911.0,0.0,0.0,0.0,0.0,0.0,0.0,0
76f897717d325b35,1551755082114,1226,-6657.0,-7937.0,6911.0,0.0,0.0,0.0,0.0,0.0,0.0,0
76f897717d325b35,1551755082204,1227,-6657.0,-7937.0,6911.0,0.0,0.0,0.0,0.0,0.0,0.0,0
76f897717d325b35,1551755082264,1228,-6657.0,-7937.0,6911.0,0.0,0.0,0.0,0.0,0.0,0.0,0
76f897717d325b35,1551755082324,1229,-6657.0,-7937.0,6911.0,0.0,0.0,0.0,0.0,0.0,0.0,0
76f897717d325b35,1551755082384,1230,-6657.0,-7681.0,6911.0,0.0,0.0,0.0,0.0,0.0,0.0,0
76f897717d325b35,1551755082444,1231,-6657.0,-7937.0,6911.0,0.0,0.0,0.0,0.0,0.0,0.0,0
76f897717d325b35,1551755082535,1232,-6657.0,-7937.0,6911.0,0.0,0.0,0.0,0.0,0.0,0.0,0
76f897717d325b35,1551755082594,1233,-6657.0,-7681.0,6911.0,0.0,0.0,0.0,0.0,0.0,0.0,0
76f897717d325b35,1551755082654,1234,-6657.0,-7937.0,6911.0,0.0,0.0,0.0,0.0,0.0,0.0,0
76f897717d325b35,1551755082714,1235,-6657.0,-7937.0,6911.0,0.0,0.0,0.0,0.0,0.0,0.0,0
76f897717d325b35,1551755082774,1236,-6657.0,-7937.0,6911.0,0.0,0.0,0.0,0.0,0.0,0.0,0
76f897717d325b35,1551755082864,1237,-6657.0,-7937.0,6911.0,0.0,0.0,0.0,0.0,0.0,0.0,0
76f897717d325b35,1551755082924,1238,-6657.0,-7937.0,6911.0,0.0,0.0,0.0,0.0,0.0,0.0,0
76f897717d325b35,1551755082984,1239,-6657.0,-7937.0,6911.0,0.0,0.0,0.0,0.0,0.0,0.0,0
76f897717d325b35,1551755083044,1240,-6657.0,-7937.0,6911.0,0.0,0.0,0.0,0.0,0.0,0.0,0
76f897717d325b35,1551755083104,1241,-6657.0,-7937.0,6911.0,0.0,0.0,0.0,0.0,0.0,0.0,0
76f897717d325b35,1551755083194,1242,-6657.0,-7681.0,6911.0,0.0,0.0,0.0,0.0,0.0,0.0,0
76f897717d325b35,1551755083254,1243,-6657.0,-7937.0,6911.0,0.0,0.0,0.0,0.0,0.0,0.0,0
76f897717d325b35,1551755083314,1244,-6657.0,-7937.0,6911.0,0.0,0.0,0.0,0.0,0.0,0.0,0
76f897717d325b35,1551755083374,1245,-6657.0,-7937.0,6911.0,0.0,0.0,0.0,0.0,0.0,0.0,0
76f897717d325b35,1551755083434,1246,-6657.0,-7937.0,6911.0,0.0,0.0,0.0,0.0,0.0,0.0,0
76f897717d325b35,1551755083524,1247,-6657.0,-7937.0,6911.0,0.0,0.0,0.0,0.0,0.0,0.0,0
76f897717d325b35,1551755083584,1248,-6657.0,-7937.0,6911.0,0.0,0.0,0.0,0.0,0.0,0.0,0
76f897717d325b35,1551755083644,1249,-6657.0,-7937.0,6911.0,0.0,0.0,0.0,0.0,0.0,0.0,0
76f897717d325b35,1551755083704,1250,-6657.0,-7937.0,6911.0,0.0,0.0,0.0,0.0,0.0,0.0,0
76f897717d325b35,1551755083764,1251,-6657.0,-7937.0,6911.0,0.0,0.0,0.0,0.0,0.0,0.0,0
76f897717d325b35,1551755083854,1252,-6657.0,-7937.0,6911.0,0.0,0.0,0.0,0.0,0.0,0.0,0
76f897717d325b35,1551755083914,1253,-6657.0,-7937.0,6911.0,0.0,0.0,0.0,0.0,0.0,0.0,0
76f897717d325b35,1551755083973,1254,-6657.0,-7681.0,6911.0,0.0,0.0,0.0,0.0,0.0,0.0,0
76f897717d325b35,1551755084034,1255,-6657.0,-7937.0,6911.0,0.0,0.0,0.0,0.0,0.0,0.0,0
76f897717d325b35,1551755084094,1256,-6913.0,-7681.0,6911.0,0.0,0.0,0.0,0.0,0.0,0.0,0
76f897717d325b35,1551755084184,1257,-6657.0,-7937.0,6911.0,0.0,0.0,0.0,0.0,0.0,0.0,0
76f897717d325b35,1551755084244,1258,-6657.0,-7937.0,6911.0,0.0,0.0,0.0,0.0,0.0,0.0,0
76f897717d325b35,1551755084304,1259,-6657.0,-7937.0,6911.0,0.0,0.0,0.0,0.0,0.0,0.0,0
76f897717d325b35,1551755084364,1260,-6657.0,-7937.0,6911.0,0.0,0.0,0.0,0.0,0.0,0.0,0
76f897717d325b35,1551755084424,1261,-6657.0,-7937.0,6911.0,0.0,0.0,0.0,0.0,0.0,0.0,0
76f897717d325b35,1551755084514,1262,-6657.0,-7937.0,6911.0,0.0,0.0,0.0,0.0,0.0,0.0,0
76f897717d325b35,1551755084574,1263,-6657.0,-7937.0,6911.0,0.0,0.0,0.0,0.0,0.0,0.0,0
76f897717d325b35,1551755084634,1264,-6657.0,-7937.0,6911.0,0.0,0.0,0.0,0.0,0.0,0.0,0
76f897717d325b35,1551755084694,1265,-6657.0,-7937.0,6911.0,0.0,0.0,0.0,0.0,0.0,0.0,0
76f897717d325b35,1551755084754,1266,-6657.0,-7937.0,6911.0,0.0,0.0,0.0,0.0,0.0,0.0,0
76f897717d325b35,1551755084844,1267,-6657.0,-7937.0,6911.0,0.0,0.0,0.0,0.0,0.0,0.0,0
76f897717d325b35,1551755084904,1268,-6657.0,-7937.0,6911.0,0.0,0.0,0.0,0.0,0.0,0.0,0
76f897717d325b35,1551755084963,1269,-6657.0,-7937.0,6911.0,0.0,0.0,0.0,0.0,0.0,0.0,0
76f897717d325b35,1551755085024,1270,-6657.0,-7937.0,6911.0,0.0,0.0,0.0,0.0,0.0,0.0,0
76f897717d325b35,1551755085084,1271,-6657.0,-7937.0,6911.0,0.0,0.0,0.0,0.0,0.0,0.0,0
76f897717d325b35,1551755085174,1272,-6657.0,-7937.0,6911.0,0.0,0.0,0.0,0.0,0.0,0.0,0
76f897717d325b35,1551755085234,1273,-6657.0,-7937.0,6911.0,0.0,0.0,0.0,0.0,0.0,0.0,0
76f897717d325b35,1551755085294,1274,-6657.0,-7937.0,6911.0,0.0,0.0,0.0,0.0,0.0,0.0,0
76f897717d325b35,1551755085354,1275,-6657.0,-7937.0,6911.0,0.0,0.0,0.0,0.0,0.0,0.0,0
76f897717d325b35,1551755085414,1276,-6657.0,-7937.0,6911.0,0.0,0.0,0.0,0.0,0.0,0.0,0
76f897717d325b35,1551755085504,1277,-6657.0,-7681.0,6911.0,0.0,0.0,0.0,0.0,0.0,0.0,0
76f897717d325b35,1551755085564,1278,-6657.0,-7937.0,6911.0,0.0,0.0,0.0,0.0,0.0,0.0,0
76f897717d325b35,1551755085624,1279,-6657.0,-7937.0,6911.0,0.0,0.0,0.0,0.0,0.0,0.0,0
76f897717d325b35,1551755085684,1280,-6657.0,-7937.0,6911.0,0.0,0.0,0.0,0.0,0.0,0.0,0
76f897717d325b35,1551755086452,1281,-6657.0,-7937.0,6911.0,0.0,0.0,0.0,0.0,0.0,0.0,0
76f897717d325b35,1551755086543,1282,-6657.0,-7937.0,6911.0,0.0,0.0,0.0,0.0,0.0,0.0,0
76f897717d325b35,1551755086633,1283,-6657.0,-7937.0,6911.0,0.0,0.0,0.0,0.0,0.0,0.0,0
76f897717d325b35,1551755086662,1284,-6657.0,-7937.0,6911.0,0.0,0.0,0.0,0.0,0.0,0.0,0
76f897717d325b35,1551755086723,1285,-6657.0,-7937.0,6911.0,0.0,0.0,0.0,0.0,0.0,0.0,0
76f897717d325b35,1551755086813,1286,-6657.0,-7937.0,6911.0,0.0,0.0,0.0,0.0,0.0,0.0,0
76f897717d325b35,1551755086873,1287,-6657.0,-7937.0,6911.0,0.0,0.0,0.0,0.0,0.0,0.0,0
76f897717d325b35,1551755086932,1288,-6657.0,-7937.0,6911.0,0.0,0.0,0.0,0.0,0.0,0.0,0
76f897717d325b35,1551755086993,1289,-6657.0,-7937.0,6911.0,0.0,0.0,0.0,0.0,0.0,0.0,0
76f897717d325b35,1551755087053,1290,-6913.0,-7937.0,6911.0,0.0,0.0,0.0,0.0,0.0,0.0,0
76f897717d325b35,1551755087113,1291,-6657.0,-7937.0,6911.0,0.0,0.0,0.0,0.0,0.0,0.0,0
76f897717d325b35,1551755087173,1292,-6657.0,-7937.0,6911.0,0.0,0.0,0.0,0.0,0.0,0.0,0
76f897717d325b35,1551755087262,1293,-6657.0,-7937.0,6911.0,0.0,0.0,0.0,0.0,0.0,0.0,0
76f897717d325b35,1551755087323,1294,-6913.0,-7937.0,6911.0,0.0,0.0,0.0,0.0,0.0,0.0,0
76f897717d325b35,1551755087382,1295,-6913.0,-7681.0,6911.0,0.0,0.0,0.0,0.0,0.0,0.0,0
76f897717d325b35,1551755087473,1296,-6657.0,-7937.0,6911.0,0.0,0.0,0.0,0.0,0.0,0.0,0
76f897717d325b35,1551755087503,1297,-6657.0,-7937.0,6911.0,0.0,0.0,0.0,0.0,0.0,0.0,0
76f897717d325b35,1551755087592,1298,-6913.0,-7937.0,6911.0,0.0,0.0,0.0,0.0,0.0,0.0,0
76f897717d325b35,1551755087653,1299,-6657.0,-7681.0,6911.0,0.0,0.0,0.0,0.0,0.0,0.0,0
76f897717d325b35,1551755087713,1300,-6657.0,-7937.0,6911.0,0.0,0.0,0.0,0.0,0.0,0.0,0
76f897717d325b35,1551755087773,1301,-6657.0,-7937.0,6911.0,0.0,0.0,0.0,0.0,0.0,0.0,0
76f897717d325b35,1551755087833,1302,-6657.0,-7937.0,6911.0,0.0,0.0,0.0,0.0,0.0,0.0,0
76f897717d325b35,1551755087922,1303,-6657.0,-7937.0,6911.0,0.0,0.0,0.0,0.0,0.0,0.0,0
76f897717d325b35,1551755087983,1304,-6657.0,-7937.0,6911.0,0.0,0.0,0.0,0.0,0.0,0.0,0
76f897717d325b35,1551755088072,1305,-6913.0,-7937.0,6911.0,0.0,0.0,0.0,0.0,0.0,0.0,0
76f897717d325b35,1551755088102,1306,-6657.0,-7937.0,6911.0,0.0,0.0,0.0,0.0,0.0,0.0,0
76f897717d325b35,1551755088162,1307,-6657.0,-7937.0,6911.0,0.0,0.0,0.0,0.0,0.0,0.0,0
76f897717d325b35,1551755088252,1308,-6657.0,-7937.0,6911.0,0.0,0.0,0.0,0.0,0.0,0.0,0
76f897717d325b35,1551755088313,1309,-6657.0,-7937.0,6911.0,0.0,0.0,0.0,0.0,0.0,0.0,0
76f897717d325b35,1551755088402,1310,-6657.0,-7937.0,6911.0,0.0,0.0,0.0,0.0,0.0,0.0,0
76f897717d325b35,1551755088433,1311,-6657.0,-7937.0,6911.0,0.0,0.0,0.0,0.0,0.0,0.0,0
76f897717d325b35,1551755088493,1312,-6657.0,-7937.0,6911.0,0.0,0.0,0.0,0.0,0.0,0.0,0
76f897717d325b35,1551755088583,1313,-6657.0,-7937.0,6911.0,0.0,0.0,0.0,0.0,0.0,0.0,0
76f897717d325b35,1551755088642,1314,-6657.0,-7937.0,6911.0,0.0,0.0,0.0,0.0,0.0,0.0,0
76f897717d325b35,1551755088703,1315,-6657.0,-7937.0,6911.0,0.0,0.0,0.0,0.0,0.0,0.0,0
76f897717d325b35,1551755088762,1316,-6657.0,-7937.0,6911.0,0.0,0.0,0.0,0.0,0.0,0.0,0
76f897717d325b35,1551755088823,1317,-6657.0,-7937.0,6911.0,0.0,0.0,0.0,0.0,0.0,0.0,0
76f897717d325b35,1551755088913,1318,-6657.0,-7937.0,6911.0,0.0,0.0,0.0,0.0,0.0,0.0,0
76f897717d325b35,1551755088973,1319,-6657.0,-7937.0,6911.0,0.0,0.0,0.0,0.0,0.0,0.0,0
76f897717d325b35,1551755089032,1320,-6657.0,-7937.0,6911.0,0.0,0.0,0.0,0.0,0.0,0.0,0
76f897717d325b35,1551755089093,1321,-6657.0,-7937.0,6911.0,0.0,0.0,0.0,0.0,0.0,0.0,0
76f897717d325b35,1551755089152,1322,-6657.0,-7937.0,6911.0,0.0,0.0,0.0,0.0,0.0,0.0,0
76f897717d325b35,1551755089243,1323,-6657.0,-7937.0,6911.0,0.0,0.0,0.0,0.0,0.0,0.0,0
76f897717d325b35,1551755089303,1324,-6657.0,-7937.0,6911.0,0.0,0.0,0.0,0.0,0.0,0.0,0
76f897717d325b35,1551755089362,1325,-6657.0,-7937.0,6911.0,0.0,0.0,0.0,0.0,0.0,0.0,0
76f897717d325b35,1551755089423,1326,-6657.0,-7937.0,6911.0,0.0,0.0,0.0,0.0,0.0,0.0,0
76f897717d325b35,1551755089512,1327,-6657.0,-7937.0,6911.0,0.0,0.0,0.0,0.0,0.0,0.0,0
76f897717d325b35,1551755089603,1328,-6657.0,-7937.0,6911.0,0.0,0.0,0.0,0.0,0.0,0.0,0
76f897717d325b35,1551755089632,1329,-6657.0,-7937.0,6911.0,0.0,0.0,0.0,0.0,0.0,0.0,0
76f897717d325b35,1551755089693,1330,-6657.0,-7937.0,6911.0,0.0,0.0,0.0,0.0,0.0,0.0,0
76f897717d325b35,1551755089753,1331,-6657.0,-7937.0,6911.0,0.0,0.0,0.0,0.0,0.0,0.0,0
76f897717d325b35,1551755089843,1332,-6657.0,-7937.0,6911.0,0.0,0.0,0.0,0.0,0.0,0.0,0
76f897717d325b35,1551755089902,1333,-6657.0,-7937.0,6911.0,0.0,0.0,0.0,0.0,0.0,0.0,0
76f897717d325b35,1551755089962,1334,-6657.0,-7937.0,6911.0,0.0,0.0,0.0,0.0,0.0,0.0,0
76f897717d325b35,1551755090022,1335,-6657.0,-7937.0,6911.0,0.0,0.0,0.0,0.0,0.0,0.0,0
76f897717d325b35,1551755090113,1336,-6657.0,-7937.0,6911.0,0.0,0.0,0.0,0.0,0.0,0.0,0
76f897717d325b35,1551755090142,1337,-6657.0,-7681.0,6911.0,0.0,0.0,0.0,0.0,0.0,0.0,0
76f897717d325b35,1551755090232,1338,-6657.0,-7937.0,6911.0,0.0,0.0,0.0,0.0,0.0,0.0,0
76f897717d325b35,1551755090293,1339,-6657.0,-7681.0,6911.0,0.0,0.0,0.0,0.0,0.0,0.0,0
76f897717d325b35,1551755090353,1340,-6657.0,-7937.0,6911.0,0.0,0.0,0.0,0.0,0.0,0.0,0
76f897717d325b35,1551755090443,1341,-6657.0,-7937.0,6911.0,0.0,0.0,0.0,0.0,0.0,0.0,0
76f897717d325b35,1551755090473,1342,-6657.0,-7681.0,6911.0,0.0,0.0,0.0,0.0,0.0,0.0,0
76f897717d325b35,1551755090562,1343,-6657.0,-7937.0,6911.0,0.0,0.0,0.0,0.0,0.0,0.0,0
76f897717d325b35,1551755090623,1344,-6657.0,-7937.0,6911.0,0.0,0.0,0.0,0.0,0.0,0.0,0
76f897717d325b35,1551755090683,1345,-6657.0,-7937.0,6911.0,0.0,0.0,0.0,0.0,0.0,0.0,0
76f897717d325b35,1551755090743,1346,-6657.0,-7937.0,6911.0,0.0,0.0,0.0,0.0,0.0,0.0,0
76f897717d325b35,1551755090803,1347,-6657.0,-7937.0,6911.0,0.0,0.0,0.0,0.0,0.0,0.0,0
76f897717d325b35,1551755090892,1348,-6657.0,-7937.0,6911.0,0.0,0.0,0.0,0.0,0.0,0.0,0
76f897717d325b35,1551755090953,1349,-6657.0,-7937.0,6911.0,0.0,0.0,0.0,0.0,0.0,0.0,0
76f897717d325b35,1551755091042,1350,-6657.0,-7937.0,6911.0,0.0,0.0,0.0,0.0,0.0,0.0,0
76f897717d325b35,1551755091073,1351,-6657.0,-7937.0,6911.0,0.0,0.0,0.0,0.0,0.0,0.0,0
76f897717d325b35,1551755091132,1352,-6657.0,-7937.0,6911.0,0.0,0.0,0.0,0.0,0.0,0.0,0
76f897717d325b35,1551755091223,1353,-6657.0,-7937.0,6911.0,0.0,0.0,0.0,0.0,0.0,0.0,0
76f897717d325b35,1551755091282,1354,-6657.0,-7937.0,6911.0,0.0,0.0,0.0,0.0,0.0,0.0,0
76f897717d325b35,1551755091343,1355,-6657.0,-7937.0,6911.0,0.0,0.0,0.0,0.0,0.0,0.0,0
76f897717d325b35,1551755091402,1356,-6657.0,-7937.0,6911.0,0.0,0.0,0.0,0.0,0.0,0.0,0
76f897717d325b35,1551755091462,1357,-6657.0,-7937.0,6911.0,0.0,0.0,0.0,0.0,0.0,0.0,0
76f897717d325b35,1551755091552,1358,-6657.0,-7937.0,6911.0,0.0,0.0,0.0,0.0,0.0,0.0,0
76f897717d325b35,1551755091612,1359,-6657.0,-7937.0,6911.0,0.0,0.0,0.0,0.0,0.0,0.0,0
76f897717d325b35,1551755091672,1360,-6657.0,-7937.0,6911.0,0.0,0.0,0.0,0.0,0.0,0.0,0
76f897717d325b35,1551755091732,1361,-6657.0,-7937.0,6911.0,0.0,0.0,0.0,0.0,0.0,0.0,0
76f897717d325b35,1551755091793,1362,-6657.0,-7937.0,6911.0,0.0,0.0,0.0,0.0,0.0,0.0,0
76f897717d325b35,1551755091883,1363,-6657.0,-7937.0,6911.0,0.0,0.0,0.0,0.0,0.0,0.0,0
76f897717d325b35,1551755091943,1364,-6657.0,-7937.0,6911.0,0.0,0.0,0.0,0.0,0.0,0.0,0
76f897717d325b35,1551755092003,1365,-6401.0,-7937.0,6911.0,0.0,0.0,0.0,0.0,0.0,0.0,0
76f897717d325b35,1551755092093,1366,-6401.0,-7937.0,6655.0,0.0,0.0,0.0,0.0,0.0,0.0,0
76f897717d325b35,1551755092123,1367,-6145.0,-7937.0,6655.0,0.0,0.0,0.0,0.0,0.0,0.0,0
76f897717d325b35,1551755092213,1368,-6401.0,-7937.0,6911.0,0.0,0.0,0.0,0.0,0.0,0.0,0
76f897717d325b35,1551755092272,1369,-6401.0,-7937.0,6911.0,0.0,0.0,0.0,0.0,0.0,0.0,0
76f897717d325b35,1551755092362,1370,-6401.0,-7937.0,6911.0,0.0,0.0,0.0,0.0,0.0,0.0,0
76f897717d325b35,1551755092393,1371,-6401.0,-7937.0,7167.0,0.0,0.0,0.0,0.0,0.0,0.0,0
76f897717d325b35,1551755092453,1372,-6401.0,-8193.0,7167.0,0.0,0.0,0.0,0.0,0.0,0.0,0
76f897717d325b35,1551755092602,1373,-6657.0,-8193.0,7423.0,0.0,0.0,0.0,0.0,0.0,0.0,0
76f897717d325b35,1551755092603,1374,-6913.0,-8193.0,7423.0,0.0,0.0,0.0,0.0,0.0,0.0,0
76f897717d325b35,1551755092662,1375,-6913.0,-8449.0,7935.0,0.0,0.0,0.0,0.0,0.0,0.0,0
76f897717d325b35,1551755092753,1376,-7169.0,-8449.0,7935.0,0.0,0.0,0.0,0.0,0.0,0.0,0
76f897717d325b35,1551755092782,1377,-7169.0,-8705.0,8191.0,0.0,0.0,0.0,0.0,0.0,0.0,0
76f897717d325b35,1551755092873,1378,-7169.0,-8705.0,8191.0,0.0,0.0,0.0,0.0,0.0,0.0,0
76f897717d325b35,1551755092932,1379,-7425.0,-8449.0,7935.0,0.0,0.0,0.0,0.0,0.0,0.0,0
76f897717d325b35,1551755092993,1380,-7169.0,-8449.0,8447.0,0.0,0.0,0.0,0.0,0.0,0.0,0
76f897717d325b35,1551755093053,1381,-7169.0,-8449.0,8447.0,0.0,0.0,0.0,0.0,0.0,0.0,0
76f897717d325b35,1551755093113,1382,-7169.0,-8449.0,8959.0,0.0,0.0,0.0,0.0,0.0,0.0,0
76f897717d325b35,1551755093232,1383,-6913.0,-8449.0,8703.0,0.0,0.0,0.0,0.0,0.0,0.0,0
76f897717d325b35,1551755093293,1384,-7169.0,-8193.0,9471.0,0.0,0.0,0.0,0.0,0.0,0.0,0
76f897717d325b35,1551755093323,1385,-6913.0,-8193.0,9471.0,0.0,0.0,0.0,0.0,0.0,0.0,0
76f897717d325b35,1551755093383,1386,-6913.0,-7681.0,9727.0,0.0,0.0,0.0,0.0,0.0,0.0,0
76f897717d325b35,1551755093443,1387,-6401.0,-8449.0,9471.0,0.0,0.0,0.0,0.0,0.0,0.0,0
76f897717d325b35,1551755093532,1388,-6913.0,-8193.0,9727.0,0.0,0.0,0.0,0.0,0.0,0.0,0
76f897717d325b35,1551755093742,1389,-6657.0,-8193.0,9471.0,0.0,0.0,0.0,0.0,0.0,0.0,0
76f897717d325b35,1551755093743,1390,-6657.0,-8193.0,9983.0,0.0,0.0,0.0,0.0,0.0,0.0,0
76f897717d325b35,1551755093802,1391,-6657.0,-8193.0,9727.0,0.0,0.0,0.0,0.0,0.0,0.0,0
76f897717d325b35,1551755093803,1392,-6657.0,-8449.0,9471.0,0.0,0.0,0.0,0.0,0.0,0.0,0
76f897717d325b35,1551755093862,1393,-6657.0,-8449.0,9727.0,0.0,0.0,0.0,0.0,0.0,0.0,0
76f897717d325b35,1551755094162,1394,-6913.0,-8449.0,9727.0,0.0,0.0,0.0,0.0,0.0,0.0,0
76f897717d325b35,1551755094222,1395,-6657.0,-8449.0,9727.0,0.0,0.0,0.0,0.0,0.0,0.0,0
76f897717d325b35,1551755094223,1396,-6401.0,-8449.0,9471.0,0.0,0.0,0.0,0.0,0.0,0.0,0
76f897717d325b35,1551755094312,1397,-6401.0,-8705.0,9471.0,0.0,0.0,0.0,0.0,0.0,0.0,0
76f897717d325b35,1551755094313,1398,-6401.0,-8449.0,9727.0,0.0,0.0,0.0,0.0,0.0,0.0,0
76f897717d325b35,1551755094315,1399,-6913.0,-8449.0,9471.0,0.0,0.0,0.0,0.0,0.0,0.0,0
76f897717d325b35,1551755094316,1400,-6145.0,-8705.0,9727.0,0.0,0.0,0.0,0.0,0.0,0.0,0
76f897717d325b35,1551755094373,1401,-6657.0,-8705.0,9471.0,0.0,0.0,0.0,0.0,0.0,0.0,0
76f897717d325b35,1551755094493,1402,-6657.0,-8449.0,9471.0,0.0,0.0,0.0,0.0,0.0,0.0,0
76f897717d325b35,1551755094522,1403,-6657.0,-8449.0,9471.0,0.0,0.0,0.0,0.0,0.0,0.0,0
76f897717d325b35,1551755094583,1404,-6657.0,-8449.0,9471.0,0.0,0.0,0.0,0.0,0.0,0.0,0
76f897717d325b35,1551755094642,1405,-6657.0,-8449.0,9471.0,0.0,0.0,0.0,0.0,0.0,0.0,0
76f897717d325b35,1551755094732,1406,-6657.0,-8449.0,9471.0,0.0,0.0,0.0,0.0,0.0,0.0,0
76f897717d325b35,1551755094793,1407,-6657.0,-8449.0,9471.0,0.0,0.0,0.0,0.0,0.0,0.0,0
76f897717d325b35,1551755094883,1408,-6657.0,-8705.0,9215.0,0.0,0.0,0.0,0.0,0.0,0.0,0
76f897717d325b35,1551755094912,1409,-6657.0,-8449.0,9471.0,0.0,0.0,0.0,0.0,0.0,0.0,0
76f897717d325b35,1551755094973,1410,-6657.0,-8449.0,9471.0,0.0,0.0,0.0,0.0,0.0,0.0,0
76f897717d325b35,1551755095032,1411,-6657.0,-8449.0,9471.0,0.0,0.0,0.0,0.0,0.0,0.0,0
76f897717d325b35,1551755095092,1412,-6657.0,-8449.0,9471.0,0.0,0.0,0.0,0.0,0.0,0.0,0
76f897717d325b35,1551755095183,1413,-6657.0,-8449.0,9471.0,0.0,0.0,0.0,0.0,0.0,0.0,0
76f897717d325b35,1551755095242,1414,-6657.0,-8449.0,9471.0,0.0,0.0,0.0,0.0,0.0,0.0,0
76f897717d325b35,1551755095303,1415,-6657.0,-8449.0,9471.0,0.0,0.0,0.0,0.0,0.0,0.0,0
76f897717d325b35,1551755095362,1416,-6657.0,-8449.0,9471.0,0.0,0.0,0.0,0.0,0.0,0.0,0
76f897717d325b35,1551755095422,1417,-6657.0,-8449.0,9471.0,0.0,0.0,0.0,0.0,0.0,0.0,0
76f897717d325b35,1551755095513,1418,-6657.0,-8449.0,9471.0,0.0,0.0,0.0,0.0,0.0,0.0,0
76f897717d325b35,1551755095602,1419,-6657.0,-8449.0,9727.0,0.0,0.0,0.0,0.0,0.0,0.0,0
76f897717d325b35,1551755095662,1420,-6657.0,-8449.0,9471.0,0.0,0.0,0.0,0.0,0.0,0.0,0
