2562-03-01 144238,,,,,,,,,,,,
Start Time,2562/03/01 14:42:38,Timestamp,1551426158642,,,,,,,,,
sensor ID,timestamp (ms),Sample Count,acc_x,acc_y,acc_z,gyro_x,gyro_y,gyro_z,mag_x,mag_y,mag_z,mark
76f897717d325b35,1551426158663,0,-7169.0,-8193.0,8703.0,0.0,0.0,0.0,0.0,0.0,0.0,0
76f897717d325b35,1551426158675,1,-7425.0,-7937.0,8959.0,0.0,0.0,0.0,0.0,0.0,0.0,0
76f897717d325b35,1551426158735,2,-7681.0,-7937.0,9471.0,0.0,0.0,0.0,0.0,0.0,0.0,0
76f897717d325b35,1551426158795,3,-7681.0,-8193.0,9215.0,0.0,0.0,0.0,0.0,0.0,0.0,0
76f897717d325b35,1551426158855,4,-7681.0,-8193.0,9215.0,0.0,0.0,0.0,0.0,0.0,0.0,0
76f897717d325b35,1551426158946,5,-7425.0,-7681.0,8959.0,0.0,0.0,0.0,0.0,0.0,0.0,0
76f897717d325b35,1551426159005,6,-7681.0,-7681.0,8959.0,0.0,0.0,0.0,0.0,0.0,0.0,0
76f897717d325b35,1551426159065,7,-7937.0,-8193.0,8959.0,0.0,0.0,0.0,0.0,0.0,0.0,0
76f897717d325b35,1551426159125,8,-7681.0,-8193.0,8959.0,0.0,0.0,0.0,0.0,0.0,0.0,0
76f897717d325b35,1551426159185,9,-7425.0,-7937.0,8959.0,0.0,0.0,0.0,0.0,0.0,0.0,0
76f897717d325b35,1551426159335,10,-7425.0,-7937.0,8959.0,0.0,0.0,0.0,0.0,0.0,0.0,0
76f897717d325b35,1551426159336,11,-7425.0,-7937.0,8959.0,0.0,0.0,0.0,0.0,0.0,0.0,0
76f897717d325b35,1551426159426,12,-7681.0,-7937.0,8703.0,0.0,0.0,0.0,0.0,0.0,0.0,0
76f897717d325b35,1551426159456,13,-7425.0,-7937.0,8959.0,0.0,0.0,0.0,0.0,0.0,0.0,0
76f897717d325b35,1551426159546,14,-7425.0,-8193.0,8959.0,0.0,0.0,0.0,0.0,0.0,0.0,0
76f897717d325b35,1551426159605,15,-7425.0,-8193.0,8959.0,0.0,0.0,0.0,0.0,0.0,0.0,0
76f897717d325b35,1551426159667,16,-7425.0,-7937.0,8959.0,0.0,0.0,0.0,0.0,0.0,0.0,0
76f897717d325b35,1551426159726,17,-7425.0,-8193.0,8959.0,0.0,0.0,0.0,0.0,0.0,0.0,0
76f897717d325b35,1551426159786,18,-7425.0,-8193.0,8959.0,0.0,0.0,0.0,0.0,0.0,0.0,0
76f897717d325b35,1551426159876,19,-7425.0,-8193.0,8959.0,0.0,0.0,0.0,0.0,0.0,0.0,0
76f897717d325b35,1551426159936,20,-7425.0,-7937.0,8703.0,0.0,0.0,0.0,0.0,0.0,0.0,0
76f897717d325b35,1551426159996,21,-7425.0,-8193.0,8703.0,0.0,0.0,0.0,0.0,0.0,0.0,0
76f897717d325b35,1551426160056,22,-7425.0,-8193.0,8703.0,0.0,0.0,0.0,0.0,0.0,0.0,0
76f897717d325b35,1551426160146,23,-7425.0,-7937.0,8703.0,0.0,0.0,0.0,0.0,0.0,0.0,0
76f897717d325b35,1551426160175,24,-7425.0,-7937.0,8703.0,0.0,0.0,0.0,0.0,0.0,0.0,0
76f897717d325b35,1551426160266,25,-7425.0,-7937.0,8703.0,0.0,0.0,0.0,0.0,0.0,0.0,0
76f897717d325b35,1551426160326,26,-7425.0,-7937.0,8703.0,0.0,0.0,0.0,0.0,0.0,0.0,0
76f897717d325b35,1551426160386,27,-7425.0,-8193.0,8703.0,0.0,0.0,0.0,0.0,0.0,0.0,0
76f897717d325b35,1551426160446,28,-7425.0,-8193.0,8703.0,0.0,0.0,0.0,0.0,0.0,0.0,0
76f897717d325b35,1551426160505,29,-7425.0,-7937.0,8703.0,0.0,0.0,0.0,0.0,0.0,0.0,0
76f897717d325b35,1551426160626,30,-7425.0,-8193.0,8703.0,0.0,0.0,0.0,0.0,0.0,0.0,0
76f897717d325b35,1551426160655,31,-7425.0,-8193.0,8703.0,0.0,0.0,0.0,0.0,0.0,0.0,0
76f897717d325b35,1551426160745,32,-7425.0,-7937.0,8703.0,0.0,0.0,0.0,0.0,0.0,0.0,0
76f897717d325b35,1551426160774,33,-7425.0,-7937.0,8703.0,0.0,0.0,0.0,0.0,0.0,0.0,0
76f897717d325b35,1551426160835,34,-7425.0,-8193.0,8703.0,0.0,0.0,0.0,0.0,0.0,0.0,0
76f897717d325b35,1551426160925,35,-7425.0,-8193.0,8703.0,0.0,0.0,0.0,0.0,0.0,0.0,0
76f897717d325b35,1551426160985,36,-7425.0,-8193.0,8703.0,0.0,0.0,0.0,0.0,0.0,0.0,0
76f897717d325b35,1551426161045,37,-7425.0,-7937.0,8703.0,0.0,0.0,0.0,0.0,0.0,0.0,0
76f897717d325b35,1551426161135,38,-7425.0,-7937.0,8703.0,0.0,0.0,0.0,0.0,0.0,0.0,0
76f897717d325b35,1551426161165,39,-7425.0,-7937.0,8703.0,0.0,0.0,0.0,0.0,0.0,0.0,0
76f897717d325b35,1551426161255,40,-7425.0,-7937.0,8703.0,0.0,0.0,0.0,0.0,0.0,0.0,0
76f897717d325b35,1551426161345,41,-7425.0,-7937.0,8703.0,0.0,0.0,0.0,0.0,0.0,0.0,0
76f897717d325b35,1551426161375,42,-7425.0,-8193.0,8703.0,0.0,0.0,0.0,0.0,0.0,0.0,0
76f897717d325b35,1551426161466,43,-7425.0,-8193.0,8959.0,0.0,0.0,0.0,0.0,0.0,0.0,0
76f897717d325b35,1551426161496,44,-7425.0,-8193.0,8703.0,0.0,0.0,0.0,0.0,0.0,0.0,0
76f897717d325b35,1551426161586,45,-7425.0,-8193.0,8703.0,0.0,0.0,0.0,0.0,0.0,0.0,0
76f897717d325b35,1551426161675,46,-7425.0,-7937.0,8703.0,0.0,0.0,0.0,0.0,0.0,0.0,0
76f897717d325b35,1551426161705,47,-7425.0,-8193.0,8703.0,0.0,0.0,0.0,0.0,0.0,0.0,0
76f897717d325b35,1551426161766,48,-7425.0,-7937.0,8703.0,0.0,0.0,0.0,0.0,0.0,0.0,0
76f897717d325b35,1551426161826,49,-7425.0,-7937.0,8703.0,0.0,0.0,0.0,0.0,0.0,0.0,0
76f897717d325b35,1551426161916,50,-7425.0,-8193.0,8703.0,0.0,0.0,0.0,0.0,0.0,0.0,0
76f897717d325b35,1551426161976,51,-7425.0,-8193.0,8703.0,0.0,0.0,0.0,0.0,0.0,0.0,0
76f897717d325b35,1551426162036,52,-7425.0,-8193.0,8703.0,0.0,0.0,0.0,0.0,0.0,0.0,0
76f897717d325b35,1551426162126,53,-7425.0,-7937.0,8703.0,0.0,0.0,0.0,0.0,0.0,0.0,0
76f897717d325b35,1551426162156,54,-7425.0,-8193.0,8703.0,0.0,0.0,0.0,0.0,0.0,0.0,0
76f897717d325b35,1551426162246,55,-7425.0,-8193.0,8703.0,0.0,0.0,0.0,0.0,0.0,0.0,0
76f897717d325b35,1551426162305,56,-7425.0,-8193.0,8703.0,0.0,0.0,0.0,0.0,0.0,0.0,0
76f897717d325b35,1551426162366,57,-7425.0,-8193.0,8703.0,0.0,0.0,0.0,0.0,0.0,0.0,0
76f897717d325b35,1551426162426,58,-7425.0,-8193.0,8703.0,0.0,0.0,0.0,0.0,0.0,0.0,0
76f897717d325b35,1551426162516,59,-7425.0,-8193.0,8703.0,0.0,0.0,0.0,0.0,0.0,0.0,0
76f897717d325b35,1551426162575,60,-7425.0,-8193.0,8703.0,0.0,0.0,0.0,0.0,0.0,0.0,0
76f897717d325b35,1551426162636,61,-7425.0,-8193.0,8703.0,0.0,0.0,0.0,0.0,0.0,0.0,0
76f897717d325b35,1551426162755,62,-7425.0,-7937.0,8703.0,0.0,0.0,0.0,0.0,0.0,0.0,0
76f897717d325b35,1551426162756,63,-7425.0,-7937.0,8703.0,0.0,0.0,0.0,0.0,0.0,0.0,0
76f897717d325b35,1551426162846,64,-7425.0,-7937.0,8703.0,0.0,0.0,0.0,0.0,0.0,0.0,0
76f897717d325b35,1551426162936,65,-7425.0,-8193.0,8703.0,0.0,0.0,0.0,0.0,0.0,0.0,0
76f897717d325b35,1551426162996,66,-7425.0,-8193.0,8703.0,0.0,0.0,0.0,0.0,0.0,0.0,0
76f897717d325b35,1551426163055,67,-7425.0,-8193.0,8703.0,0.0,0.0,0.0,0.0,0.0,0.0,0
76f897717d325b35,1551426163086,68,-7425.0,-8193.0,8703.0,0.0,0.0,0.0,0.0,0.0,0.0,0
76f897717d325b35,1551426163146,69,-7425.0,-8193.0,8703.0,0.0,0.0,0.0,0.0,0.0,0.0,0
76f897717d325b35,1551426163236,70,-7425.0,-8193.0,8703.0,0.0,0.0,0.0,0.0,0.0,0.0,0
76f897717d325b35,1551426163296,71,-7425.0,-8193.0,8703.0,0.0,0.0,0.0,0.0,0.0,0.0,0
76f897717d325b35,1551426163356,72,-7425.0,-8193.0,8703.0,0.0,0.0,0.0,0.0,0.0,0.0,0
76f897717d325b35,1551426163416,73,-7425.0,-8193.0,8703.0,0.0,0.0,0.0,0.0,0.0,0.0,0
76f897717d325b35,1551426163475,74,-7425.0,-8193.0,8703.0,0.0,0.0,0.0,0.0,0.0,0.0,0
76f897717d325b35,1551426163565,75,-7425.0,-8193.0,8703.0,0.0,0.0,0.0,0.0,0.0,0.0,0
76f897717d325b35,1551426163626,76,-7425.0,-8193.0,8703.0,0.0,0.0,0.0,0.0,0.0,0.0,0
76f897717d325b35,1551426163686,77,-7425.0,-8193.0,8703.0,0.0,0.0,0.0,0.0,0.0,0.0,0
76f897717d325b35,1551426163745,78,-7425.0,-8193.0,8703.0,0.0,0.0,0.0,0.0,0.0,0.0,0
76f897717d325b35,1551426163805,79,-7425.0,-8193.0,8703.0,0.0,0.0,0.0,0.0,0.0,0.0,0
76f897717d325b35,1551426163896,80,-7425.0,-8193.0,8703.0,0.0,0.0,0.0,0.0,0.0,0.0,0
76f897717d325b35,1551426163956,81,-7425.0,-7937.0,8703.0,0.0,0.0,0.0,0.0,0.0,0.0,0
76f897717d325b35,1551426164016,82,-7425.0,-8193.0,8703.0,0.0,0.0,0.0,0.0,0.0,0.0,0
76f897717d325b35,1551426164075,83,-7425.0,-7937.0,8703.0,0.0,0.0,0.0,0.0,0.0,0.0,0
76f897717d325b35,1551426164136,84,-7425.0,-8193.0,8703.0,0.0,0.0,0.0,0.0,0.0,0.0,0
76f897717d325b35,1551426164226,85,-7425.0,-7937.0,8703.0,0.0,0.0,0.0,0.0,0.0,0.0,0
76f897717d325b35,1551426164286,86,-7425.0,-7937.0,8703.0,0.0,0.0,0.0,0.0,0.0,0.0,0
76f897717d325b35,1551426164346,87,-7425.0,-8193.0,8703.0,0.0,0.0,0.0,0.0,0.0,0.0,0
76f897717d325b35,1551426164405,88,-7425.0,-8193.0,8703.0,0.0,0.0,0.0,0.0,0.0,0.0,0
76f897717d325b35,1551426164466,89,-7425.0,-7937.0,8703.0,0.0,0.0,0.0,0.0,0.0,0.0,0
76f897717d325b35,1551426164556,90,-7425.0,-7937.0,8703.0,0.0,0.0,0.0,0.0,0.0,0.0,0
76f897717d325b35,1551426164616,91,-7425.0,-7937.0,8703.0,0.0,0.0,0.0,0.0,0.0,0.0,0
76f897717d325b35,1551426164675,92,-7425.0,-8193.0,8703.0,0.0,0.0,0.0,0.0,0.0,0.0,0
76f897717d325b35,1551426164736,93,-7425.0,-8193.0,8703.0,0.0,0.0,0.0,0.0,0.0,0.0,0
76f897717d325b35,1551426164796,94,-7425.0,-8193.0,8703.0,0.0,0.0,0.0,0.0,0.0,0.0,0
76f897717d325b35,1551426164886,95,-7425.0,-8193.0,8703.0,0.0,0.0,0.0,0.0,0.0,0.0,0
76f897717d325b35,1551426164945,96,-7425.0,-8193.0,8703.0,0.0,0.0,0.0,0.0,0.0,0.0,0
76f897717d325b35,1551426165005,97,-7425.0,-8193.0,8703.0,0.0,0.0,0.0,0.0,0.0,0.0,0
76f897717d325b35,1551426165065,98,-7425.0,-8193.0,8703.0,0.0,0.0,0.0,0.0,0.0,0.0,0
76f897717d325b35,1551426165156,99,-7425.0,-8193.0,8703.0,0.0,0.0,0.0,0.0,0.0,0.0,0
76f897717d325b35,1551426165216,100,-7425.0,-8193.0,8703.0,0.0,0.0,0.0,0.0,0.0,0.0,0
76f897717d325b35,1551426165276,101,-7425.0,-7937.0,8703.0,0.0,0.0,0.0,0.0,0.0,0.0,0
76f897717d325b35,1551426165336,102,-7425.0,-7937.0,8703.0,0.0,0.0,0.0,0.0,0.0,0.0,0
76f897717d325b35,1551426165396,103,-7425.0,-8193.0,8703.0,0.0,0.0,0.0,0.0,0.0,0.0,0
76f897717d325b35,1551426165455,104,-7425.0,-8193.0,8703.0,0.0,0.0,0.0,0.0,0.0,0.0,0
76f897717d325b35,1551426165546,105,-7425.0,-8193.0,8703.0,0.0,0.0,0.0,0.0,0.0,0.0,0
76f897717d325b35,1551426165605,106,-7425.0,-8193.0,8703.0,0.0,0.0,0.0,0.0,0.0,0.0,0
76f897717d325b35,1551426165666,107,-7425.0,-7937.0,8703.0,0.0,0.0,0.0,0.0,0.0,0.0,0
76f897717d325b35,1551426165726,108,-7425.0,-8193.0,8703.0,0.0,0.0,0.0,0.0,0.0,0.0,0
76f897717d325b35,1551426165786,109,-7425.0,-8193.0,8703.0,0.0,0.0,0.0,0.0,0.0,0.0,0
76f897717d325b35,1551426165875,110,-7425.0,-8193.0,8703.0,0.0,0.0,0.0,0.0,0.0,0.0,0
76f897717d325b35,1551426165936,111,-7425.0,-8193.0,8703.0,0.0,0.0,0.0,0.0,0.0,0.0,0
76f897717d325b35,1551426165996,112,-7425.0,-8193.0,8703.0,0.0,0.0,0.0,0.0,0.0,0.0,0
76f897717d325b35,1551426166056,113,-7425.0,-8193.0,8703.0,0.0,0.0,0.0,0.0,0.0,0.0,0
76f897717d325b35,1551426166116,114,-7425.0,-8193.0,8703.0,0.0,0.0,0.0,0.0,0.0,0.0,0
76f897717d325b35,1551426166205,115,-7425.0,-7937.0,8703.0,0.0,0.0,0.0,0.0,0.0,0.0,0
76f897717d325b35,1551426166266,116,-7425.0,-7937.0,8703.0,0.0,0.0,0.0,0.0,0.0,0.0,0
76f897717d325b35,1551426166325,117,-7425.0,-8193.0,8703.0,0.0,0.0,0.0,0.0,0.0,0.0,0
76f897717d325b35,1551426166386,118,-7425.0,-8193.0,8703.0,0.0,0.0,0.0,0.0,0.0,0.0,0
76f897717d325b35,1551426166445,119,-7425.0,-7937.0,8703.0,0.0,0.0,0.0,0.0,0.0,0.0,0
76f897717d325b35,1551426166536,120,-7425.0,-7937.0,8703.0,0.0,0.0,0.0,0.0,0.0,0.0,0
76f897717d325b35,1551426166596,121,-7425.0,-7937.0,8703.0,0.0,0.0,0.0,0.0,0.0,0.0,0
76f897717d325b35,1551426166656,122,-7425.0,-7937.0,8703.0,0.0,0.0,0.0,0.0,0.0,0.0,0
76f897717d325b35,1551426166716,123,-7425.0,-8193.0,8703.0,0.0,0.0,0.0,0.0,0.0,0.0,0
76f897717d325b35,1551426166775,124,-7425.0,-8193.0,8703.0,0.0,0.0,0.0,0.0,0.0,0.0,0
76f897717d325b35,1551426166866,125,-7425.0,-8193.0,8703.0,0.0,0.0,0.0,0.0,0.0,0.0,0
76f897717d325b35,1551426166926,126,-7425.0,-7937.0,8703.0,0.0,0.0,0.0,0.0,0.0,0.0,0
76f897717d325b35,1551426166986,127,-7425.0,-8193.0,8703.0,0.0,0.0,0.0,0.0,0.0,0.0,0
76f897717d325b35,1551426167046,128,-7425.0,-8193.0,8703.0,0.0,0.0,0.0,0.0,0.0,0.0,0
76f897717d325b35,1551426167105,129,-7425.0,-8193.0,8703.0,0.0,0.0,0.0,0.0,0.0,0.0,0
76f897717d325b35,1551426167195,130,-7425.0,-8193.0,8703.0,0.0,0.0,0.0,0.0,0.0,0.0,0
76f897717d325b35,1551426167256,131,-7425.0,-8193.0,8703.0,0.0,0.0,0.0,0.0,0.0,0.0,0
76f897717d325b35,1551426167315,132,-7425.0,-8193.0,8703.0,0.0,0.0,0.0,0.0,0.0,0.0,0
76f897717d325b35,1551426167375,133,-7425.0,-8193.0,8703.0,0.0,0.0,0.0,0.0,0.0,0.0,0
76f897717d325b35,1551426167436,134,-7425.0,-8193.0,8703.0,0.0,0.0,0.0,0.0,0.0,0.0,0
76f897717d325b35,1551426167526,135,-7425.0,-8193.0,8703.0,0.0,0.0,0.0,0.0,0.0,0.0,0
76f897717d325b35,1551426167585,136,-7425.0,-7937.0,8703.0,0.0,0.0,0.0,0.0,0.0,0.0,0
76f897717d325b35,1551426167645,137,-7425.0,-8193.0,8703.0,0.0,0.0,0.0,0.0,0.0,0.0,0
76f897717d325b35,1551426167705,138,-7425.0,-8193.0,8703.0,0.0,0.0,0.0,0.0,0.0,0.0,0
76f897717d325b35,1551426167766,139,-7425.0,-8193.0,8703.0,0.0,0.0,0.0,0.0,0.0,0.0,0
76f897717d325b35,1551426167856,140,-7425.0,-8193.0,8703.0,0.0,0.0,0.0,0.0,0.0,0.0,0
76f897717d325b35,1551426167916,141,-7425.0,-8193.0,8703.0,0.0,0.0,0.0,0.0,0.0,0.0,0
76f897717d325b35,1551426167975,142,-7425.0,-8193.0,8703.0,0.0,0.0,0.0,0.0,0.0,0.0,0
76f897717d325b35,1551426168036,143,-7425.0,-8193.0,8703.0,0.0,0.0,0.0,0.0,0.0,0.0,0
76f897717d325b35,1551426168096,144,-7425.0,-8193.0,8703.0,0.0,0.0,0.0,0.0,0.0,0.0,0
76f897717d325b35,1551426168186,145,-7425.0,-8193.0,8703.0,0.0,0.0,0.0,0.0,0.0,0.0,0
76f897717d325b35,1551426168246,146,-7425.0,-8193.0,8703.0,0.0,0.0,0.0,0.0,0.0,0.0,0
76f897717d325b35,1551426168305,147,-7425.0,-8193.0,8703.0,0.0,0.0,0.0,0.0,0.0,0.0,0
76f897717d325b35,1551426168366,148,-7425.0,-8193.0,8703.0,0.0,0.0,0.0,0.0,0.0,0.0,0
76f897717d325b35,1551426168426,149,-7425.0,-8193.0,8703.0,0.0,0.0,0.0,0.0,0.0,0.0,0
76f897717d325b35,1551426168516,150,-7425.0,-8193.0,8703.0,0.0,0.0,0.0,0.0,0.0,0.0,0
76f897717d325b35,1551426168575,151,-7425.0,-8193.0,8703.0,0.0,0.0,0.0,0.0,0.0,0.0,0
76f897717d325b35,1551426168636,152,-7425.0,-8193.0,8703.0,0.0,0.0,0.0,0.0,0.0,0.0,0
76f897717d325b35,1551426168695,153,-7425.0,-8193.0,8703.0,0.0,0.0,0.0,0.0,0.0,0.0,0
76f897717d325b35,1551426168756,154,-7425.0,-8193.0,8703.0,0.0,0.0,0.0,0.0,0.0,0.0,0
76f897717d325b35,1551426168846,155,-7425.0,-8193.0,8703.0,0.0,0.0,0.0,0.0,0.0,0.0,0
76f897717d325b35,1551426168905,156,-7425.0,-8193.0,8703.0,0.0,0.0,0.0,0.0,0.0,0.0,0
76f897717d325b35,1551426168966,157,-7425.0,-7937.0,8703.0,0.0,0.0,0.0,0.0,0.0,0.0,0
76f897717d325b35,1551426169026,158,-7425.0,-8193.0,8703.0,0.0,0.0,0.0,0.0,0.0,0.0,0
76f897717d325b35,1551426169085,159,-7425.0,-8193.0,8703.0,0.0,0.0,0.0,0.0,0.0,0.0,0
76f897717d325b35,1551426169175,160,-7425.0,-7937.0,8703.0,0.0,0.0,0.0,0.0,0.0,0.0,0
76f897717d325b35,1551426169236,161,-7425.0,-7937.0,8703.0,0.0,0.0,0.0,0.0,0.0,0.0,0
76f897717d325b35,1551426169296,162,-7425.0,-8193.0,8703.0,0.0,0.0,0.0,0.0,0.0,0.0,0
76f897717d325b35,1551426169386,163,-7425.0,-8193.0,8703.0,0.0,0.0,0.0,0.0,0.0,0.0,0
76f897717d325b35,1551426169416,164,-7425.0,-8193.0,8703.0,0.0,0.0,0.0,0.0,0.0,0.0,0
76f897717d325b35,1551426169505,165,-7425.0,-8193.0,8703.0,0.0,0.0,0.0,0.0,0.0,0.0,0
76f897717d325b35,1551426169596,166,-7425.0,-8193.0,8703.0,0.0,0.0,0.0,0.0,0.0,0.0,0
76f897717d325b35,1551426169626,167,-7425.0,-8193.0,8703.0,0.0,0.0,0.0,0.0,0.0,0.0,0
76f897717d325b35,1551426169686,168,-7425.0,-8193.0,8703.0,0.0,0.0,0.0,0.0,0.0,0.0,0
76f897717d325b35,1551426169746,169,-7425.0,-8193.0,8703.0,0.0,0.0,0.0,0.0,0.0,0.0,0
76f897717d325b35,1551426169836,170,-7425.0,-8193.0,8703.0,0.0,0.0,0.0,0.0,0.0,0.0,0
76f897717d325b35,1551426169896,171,-7425.0,-8193.0,8703.0,0.0,0.0,0.0,0.0,0.0,0.0,0
76f897717d325b35,1551426169955,172,-7425.0,-8193.0,8703.0,0.0,0.0,0.0,0.0,0.0,0.0,0
76f897717d325b35,1551426170016,173,-7425.0,-8193.0,8703.0,0.0,0.0,0.0,0.0,0.0,0.0,0
76f897717d325b35,1551426170075,174,-7425.0,-8193.0,8703.0,0.0,0.0,0.0,0.0,0.0,0.0,0
76f897717d325b35,1551426170195,175,-7425.0,-8193.0,8703.0,0.0,0.0,0.0,0.0,0.0,0.0,0
76f897717d325b35,1551426170226,176,-7425.0,-8193.0,8703.0,0.0,0.0,0.0,0.0,0.0,0.0,0
76f897717d325b35,1551426170285,177,-7425.0,-8193.0,8703.0,0.0,0.0,0.0,0.0,0.0,0.0,0
76f897717d325b35,1551426170346,178,-7425.0,-8193.0,8703.0,0.0,0.0,0.0,0.0,0.0,0.0,0
76f897717d325b35,1551426170405,179,-7425.0,-8193.0,8703.0,0.0,0.0,0.0,0.0,0.0,0.0,0
76f897717d325b35,1551426170496,180,-7425.0,-8193.0,8703.0,0.0,0.0,0.0,0.0,0.0,0.0,0
76f897717d325b35,1551426170556,181,-7425.0,-8193.0,8703.0,0.0,0.0,0.0,0.0,0.0,0.0,0
76f897717d325b35,1551426170616,182,-7425.0,-8193.0,8959.0,0.0,0.0,0.0,0.0,0.0,0.0,0
76f897717d325b35,1551426170675,183,-7425.0,-8193.0,8703.0,0.0,0.0,0.0,0.0,0.0,0.0,0
76f897717d325b35,1551426170736,184,-7425.0,-8193.0,8703.0,0.0,0.0,0.0,0.0,0.0,0.0,0
76f897717d325b35,1551426170825,185,-7425.0,-8193.0,8703.0,0.0,0.0,0.0,0.0,0.0,0.0,0
76f897717d325b35,1551426170886,186,-7425.0,-8193.0,8703.0,0.0,0.0,0.0,0.0,0.0,0.0,0
76f897717d325b35,1551426170945,187,-7425.0,-8193.0,8703.0,0.0,0.0,0.0,0.0,0.0,0.0,0
76f897717d325b35,1551426171005,188,-7425.0,-8193.0,8703.0,0.0,0.0,0.0,0.0,0.0,0.0,0
76f897717d325b35,1551426171066,189,-7425.0,-8193.0,8703.0,0.0,0.0,0.0,0.0,0.0,0.0,0
76f897717d325b35,1551426171156,190,-7425.0,-7937.0,8703.0,0.0,0.0,0.0,0.0,0.0,0.0,0
76f897717d325b35,1551426171215,191,-7425.0,-8193.0,8703.0,0.0,0.0,0.0,0.0,0.0,0.0,0
76f897717d325b35,1551426171275,192,-7425.0,-8193.0,8703.0,0.0,0.0,0.0,0.0,0.0,0.0,0
76f897717d325b35,1551426171336,193,-7425.0,-8193.0,8703.0,0.0,0.0,0.0,0.0,0.0,0.0,0
76f897717d325b35,1551426171396,194,-7425.0,-8193.0,8703.0,0.0,0.0,0.0,0.0,0.0,0.0,0
76f897717d325b35,1551426171486,195,-7425.0,-8193.0,8703.0,0.0,0.0,0.0,0.0,0.0,0.0,0
76f897717d325b35,1551426171546,196,-7425.0,-8193.0,8703.0,0.0,0.0,0.0,0.0,0.0,0.0,0
76f897717d325b35,1551426171605,197,-7425.0,-7937.0,8703.0,0.0,0.0,0.0,0.0,0.0,0.0,0
76f897717d325b35,1551426171666,198,-7425.0,-8193.0,8703.0,0.0,0.0,0.0,0.0,0.0,0.0,0
76f897717d325b35,1551426171726,199,-7425.0,-8193.0,8703.0,0.0,0.0,0.0,0.0,0.0,0.0,0
76f897717d325b35,1551426171816,200,-7425.0,-8193.0,8703.0,0.0,0.0,0.0,0.0,0.0,0.0,0
76f897717d325b35,1551426171875,201,-7425.0,-8193.0,8703.0,0.0,0.0,0.0,0.0,0.0,0.0,0
76f897717d325b35,1551426171936,202,-7425.0,-8193.0,8959.0,0.0,0.0,0.0,0.0,0.0,0.0,0
76f897717d325b35,1551426171996,203,-7425.0,-8193.0,8703.0,0.0,0.0,0.0,0.0,0.0,0.0,0
76f897717d325b35,1551426172056,204,-7425.0,-8193.0,8703.0,0.0,0.0,0.0,0.0,0.0,0.0,0
76f897717d325b35,1551426172146,205,-7425.0,-8193.0,8703.0,0.0,0.0,0.0,0.0,0.0,0.0,0
76f897717d325b35,1551426172205,206,-7425.0,-8193.0,8703.0,0.0,0.0,0.0,0.0,0.0,0.0,0
76f897717d325b35,1551426172265,207,-7425.0,-8193.0,8703.0,0.0,0.0,0.0,0.0,0.0,0.0,0
76f897717d325b35,1551426172266,208,-7425.0,-8193.0,8703.0,0.0,0.0,0.0,0.0,0.0,0.0,0
76f897717d325b35,1551426172325,209,-7425.0,-8193.0,8703.0,0.0,0.0,0.0,0.0,0.0,0.0,0
76f897717d325b35,1551426172386,210,-7425.0,-8193.0,8959.0,0.0,0.0,0.0,0.0,0.0,0.0,0
76f897717d325b35,1551426172475,211,-7425.0,-8193.0,8703.0,0.0,0.0,0.0,0.0,0.0,0.0,0
76f897717d325b35,1551426172536,212,-7425.0,-8193.0,8703.0,0.0,0.0,0.0,0.0,0.0,0.0,0
76f897717d325b35,1551426172595,213,-7425.0,-8193.0,8703.0,0.0,0.0,0.0,0.0,0.0,0.0,0
76f897717d325b35,1551426172655,214,-7425.0,-8193.0,8703.0,0.0,0.0,0.0,0.0,0.0,0.0,0
76f897717d325b35,1551426172715,215,-7425.0,-8193.0,8703.0,0.0,0.0,0.0,0.0,0.0,0.0,0
76f897717d325b35,1551426172805,216,-7425.0,-8193.0,8703.0,0.0,0.0,0.0,0.0,0.0,0.0,0
76f897717d325b35,1551426172866,217,-7425.0,-8193.0,8703.0,0.0,0.0,0.0,0.0,0.0,0.0,0
76f897717d325b35,1551426172925,218,-7425.0,-8193.0,8703.0,0.0,0.0,0.0,0.0,0.0,0.0,0
76f897717d325b35,1551426172926,219,-7425.0,-8193.0,8703.0,0.0,0.0,0.0,0.0,0.0,0.0,0
76f897717d325b35,1551426172986,220,-7425.0,-8193.0,8703.0,0.0,0.0,0.0,0.0,0.0,0.0,0
76f897717d325b35,1551426173075,221,-7425.0,-8193.0,8703.0,0.0,0.0,0.0,0.0,0.0,0.0,0
76f897717d325b35,1551426173136,222,-7425.0,-8193.0,8703.0,0.0,0.0,0.0,0.0,0.0,0.0,0
76f897717d325b35,1551426173195,223,-7425.0,-8193.0,8703.0,0.0,0.0,0.0,0.0,0.0,0.0,0
76f897717d325b35,1551426173255,224,-7425.0,-8193.0,8703.0,0.0,0.0,0.0,0.0,0.0,0.0,0
76f897717d325b35,1551426173256,225,-7425.0,-8193.0,8703.0,0.0,0.0,0.0,0.0,0.0,0.0,0
76f897717d325b35,1551426173315,226,-7425.0,-8193.0,8703.0,0.0,0.0,0.0,0.0,0.0,0.0,0
76f897717d325b35,1551426173375,227,-7425.0,-8193.0,8703.0,0.0,0.0,0.0,0.0,0.0,0.0,0
76f897717d325b35,1551426173465,228,-7425.0,-8193.0,8703.0,0.0,0.0,0.0,0.0,0.0,0.0,0
76f897717d325b35,1551426173526,229,-7425.0,-8193.0,8703.0,0.0,0.0,0.0,0.0,0.0,0.0,0
76f897717d325b35,1551426173585,230,-7425.0,-8193.0,8703.0,0.0,0.0,0.0,0.0,0.0,0.0,0
76f897717d325b35,1551426173646,231,-7425.0,-8193.0,8703.0,0.0,0.0,0.0,0.0,0.0,0.0,0
76f897717d325b35,1551426173705,232,-7425.0,-8193.0,8703.0,0.0,0.0,0.0,0.0,0.0,0.0,0
76f897717d325b35,1551426173796,233,-7425.0,-8193.0,8703.0,0.0,0.0,0.0,0.0,0.0,0.0,0
76f897717d325b35,1551426173886,234,-7425.0,-8193.0,8703.0,0.0,0.0,0.0,0.0,0.0,0.0,0
76f897717d325b35,1551426173915,235,-7425.0,-8193.0,8703.0,0.0,0.0,0.0,0.0,0.0,0.0,0
76f897717d325b35,1551426173916,236,-7425.0,-8193.0,8703.0,0.0,0.0,0.0,0.0,0.0,0.0,0
76f897717d325b35,1551426173975,237,-7425.0,-8193.0,8703.0,0.0,0.0,0.0,0.0,0.0,0.0,0
76f897717d325b35,1551426174035,238,-7425.0,-8193.0,8703.0,0.0,0.0,0.0,0.0,0.0,0.0,0
76f897717d325b35,1551426174125,239,-7425.0,-8193.0,8703.0,0.0,0.0,0.0,0.0,0.0,0.0,0
76f897717d325b35,1551426174186,240,-7425.0,-8193.0,8703.0,0.0,0.0,0.0,0.0,0.0,0.0,0
76f897717d325b35,1551426174244,241,-7425.0,-8193.0,8703.0,0.0,0.0,0.0,0.0,0.0,0.0,0
76f897717d325b35,1551426174246,242,-7425.0,-8193.0,8703.0,0.0,0.0,0.0,0.0,0.0,0.0,0
76f897717d325b35,1551426174305,243,-7425.0,-8193.0,8703.0,0.0,0.0,0.0,0.0,0.0,0.0,0
76f897717d325b35,1551426174365,244,-7425.0,-8193.0,8703.0,0.0,0.0,0.0,0.0,0.0,0.0,0
76f897717d325b35,1551426174455,245,-7425.0,-8193.0,8703.0,0.0,0.0,0.0,0.0,0.0,0.0,0
76f897717d325b35,1551426174516,246,-7425.0,-7937.0,8703.0,0.0,0.0,0.0,0.0,0.0,0.0,0
76f897717d325b35,1551426174575,247,-7425.0,-8193.0,8703.0,0.0,0.0,0.0,0.0,0.0,0.0,0
76f897717d325b35,1551426174576,248,-7425.0,-8193.0,8703.0,0.0,0.0,0.0,0.0,0.0,0.0,0
76f897717d325b35,1551426174635,249,-7425.0,-8193.0,8703.0,0.0,0.0,0.0,0.0,0.0,0.0,0
76f897717d325b35,1551426174695,250,-7425.0,-8193.0,8703.0,0.0,0.0,0.0,0.0,0.0,0.0,0
76f897717d325b35,1551426174786,251,-7425.0,-8193.0,8703.0,0.0,0.0,0.0,0.0,0.0,0.0,0
76f897717d325b35,1551426174845,252,-7425.0,-8193.0,8703.0,0.0,0.0,0.0,0.0,0.0,0.0,0
76f897717d325b35,1551426174905,253,-7425.0,-8193.0,8703.0,0.0,0.0,0.0,0.0,0.0,0.0,0
76f897717d325b35,1551426174906,254,-7425.0,-8193.0,8703.0,0.0,0.0,0.0,0.0,0.0,0.0,0
76f897717d325b35,1551426174965,255,-7425.0,-8193.0,8703.0,0.0,0.0,0.0,0.0,0.0,0.0,0
76f897717d325b35,1551426175025,256,-7425.0,-8193.0,8703.0,0.0,0.0,0.0,0.0,0.0,0.0,0
76f897717d325b35,1551426175115,257,-7425.0,-8193.0,8703.0,0.0,0.0,0.0,0.0,0.0,0.0,0
76f897717d325b35,1551426175175,258,-7425.0,-8193.0,8703.0,0.0,0.0,0.0,0.0,0.0,0.0,0
76f897717d325b35,1551426175235,259,-7425.0,-8193.0,8703.0,0.0,0.0,0.0,0.0,0.0,0.0,0
76f897717d325b35,1551426175296,260,-7425.0,-8193.0,8703.0,0.0,0.0,0.0,0.0,0.0,0.0,0
76f897717d325b35,1551426175355,261,-7425.0,-8193.0,8703.0,0.0,0.0,0.0,0.0,0.0,0.0,0
76f897717d325b35,1551426175445,262,-7425.0,-8193.0,8703.0,0.0,0.0,0.0,0.0,0.0,0.0,0
76f897717d325b35,1551426175505,263,-7425.0,-8193.0,8703.0,0.0,0.0,0.0,0.0,0.0,0.0,0
76f897717d325b35,1551426175564,264,-7425.0,-8193.0,8703.0,0.0,0.0,0.0,0.0,0.0,0.0,0
76f897717d325b35,1551426175595,265,-7425.0,-8193.0,8703.0,0.0,0.0,0.0,0.0,0.0,0.0,0
76f897717d325b35,1551426175655,266,-7425.0,-8193.0,8703.0,0.0,0.0,0.0,0.0,0.0,0.0,0
76f897717d325b35,1551426175685,267,-7425.0,-8193.0,8703.0,0.0,0.0,0.0,0.0,0.0,0.0,0
76f897717d325b35,1551426175775,268,-7425.0,-8193.0,8703.0,0.0,0.0,0.0,0.0,0.0,0.0,0
76f897717d325b35,1551426175835,269,-7425.0,-8193.0,8703.0,0.0,0.0,0.0,0.0,0.0,0.0,0
76f897717d325b35,1551426175894,270,-7425.0,-8193.0,8703.0,0.0,0.0,0.0,0.0,0.0,0.0,0
76f897717d325b35,1551426175896,271,-7425.0,-8193.0,8703.0,0.0,0.0,0.0,0.0,0.0,0.0,0
76f897717d325b35,1551426175955,272,-7425.0,-8193.0,8703.0,0.0,0.0,0.0,0.0,0.0,0.0,0
76f897717d325b35,1551426176045,273,-7425.0,-8193.0,8703.0,0.0,0.0,0.0,0.0,0.0,0.0,0
76f897717d325b35,1551426176105,274,-7425.0,-8193.0,8703.0,0.0,0.0,0.0,0.0,0.0,0.0,0
76f897717d325b35,1551426176165,275,-7425.0,-8193.0,8703.0,0.0,0.0,0.0,0.0,0.0,0.0,0
76f897717d325b35,1551426176225,276,-7425.0,-8193.0,8703.0,0.0,0.0,0.0,0.0,0.0,0.0,0
76f897717d325b35,1551426176256,277,-7425.0,-8193.0,8703.0,0.0,0.0,0.0,0.0,0.0,0.0,0
76f897717d325b35,1551426176285,278,-7425.0,-8193.0,8703.0,0.0,0.0,0.0,0.0,0.0,0.0,0
76f897717d325b35,1551426176375,279,-7425.0,-8193.0,8703.0,0.0,0.0,0.0,0.0,0.0,0.0,0
76f897717d325b35,1551426176435,280,-7425.0,-8193.0,8703.0,0.0,0.0,0.0,0.0,0.0,0.0,0
76f897717d325b35,1551426176495,281,-7425.0,-8193.0,8703.0,0.0,0.0,0.0,0.0,0.0,0.0,0
76f897717d325b35,1551426176555,282,-7425.0,-8193.0,8703.0,0.0,0.0,0.0,0.0,0.0,0.0,0
76f897717d325b35,1551426176556,283,-7425.0,-8193.0,8703.0,0.0,0.0,0.0,0.0,0.0,0.0,0
76f897717d325b35,1551426176615,284,-7425.0,-8193.0,8703.0,0.0,0.0,0.0,0.0,0.0,0.0,0
76f897717d325b35,1551426176705,285,-7425.0,-8193.0,8703.0,0.0,0.0,0.0,0.0,0.0,0.0,0
76f897717d325b35,1551426176765,286,-7425.0,-8193.0,8959.0,0.0,0.0,0.0,0.0,0.0,0.0,0
76f897717d325b35,1551426176825,287,-7425.0,-8193.0,8703.0,0.0,0.0,0.0,0.0,0.0,0.0,0
76f897717d325b35,1551426176884,288,-7425.0,-8193.0,8959.0,0.0,0.0,0.0,0.0,0.0,0.0,0
76f897717d325b35,1551426176915,289,-7425.0,-8193.0,8959.0,0.0,0.0,0.0,0.0,0.0,0.0,0
76f897717d325b35,1551426176945,290,-7425.0,-8193.0,8703.0,0.0,0.0,0.0,0.0,0.0,0.0,0
76f897717d325b35,1551426177036,291,-7425.0,-8193.0,8959.0,0.0,0.0,0.0,0.0,0.0,0.0,0
76f897717d325b35,1551426177095,292,-7425.0,-8193.0,8703.0,0.0,0.0,0.0,0.0,0.0,0.0,0
76f897717d325b35,1551426177155,293,-7425.0,-8193.0,8703.0,0.0,0.0,0.0,0.0,0.0,0.0,0
76f897717d325b35,1551426177214,294,-7425.0,-8193.0,8703.0,0.0,0.0,0.0,0.0,0.0,0.0,0
76f897717d325b35,1551426177216,295,-7425.0,-8193.0,8703.0,0.0,0.0,0.0,0.0,0.0,0.0,0
76f897717d325b35,1551426177275,296,-7425.0,-8193.0,8703.0,0.0,0.0,0.0,0.0,0.0,0.0,0
76f897717d325b35,1551426177365,297,-7425.0,-8193.0,8703.0,0.0,0.0,0.0,0.0,0.0,0.0,0
76f897717d325b35,1551426177455,298,-7425.0,-8193.0,8703.0,0.0,0.0,0.0,0.0,0.0,0.0,0
76f897717d325b35,1551426177516,299,-7425.0,-8193.0,8703.0,0.0,0.0,0.0,0.0,0.0,0.0,0
76f897717d325b35,1551426177545,300,-7425.0,-8193.0,8703.0,0.0,0.0,0.0,0.0,0.0,0.0,0
76f897717d325b35,1551426177605,301,-7425.0,-8193.0,8959.0,0.0,0.0,0.0,0.0,0.0,0.0,0
76f897717d325b35,1551426177695,302,-7425.0,-8193.0,8703.0,0.0,0.0,0.0,0.0,0.0,0.0,0
76f897717d325b35,1551426177755,303,-7425.0,-8193.0,8703.0,0.0,0.0,0.0,0.0,0.0,0.0,0
76f897717d325b35,1551426177816,304,-7425.0,-8193.0,8703.0,0.0,0.0,0.0,0.0,0.0,0.0,0
76f897717d325b35,1551426177875,305,-7425.0,-8193.0,8703.0,0.0,0.0,0.0,0.0,0.0,0.0,0
76f897717d325b35,1551426177965,306,-7425.0,-8193.0,8703.0,0.0,0.0,0.0,0.0,0.0,0.0,0
76f897717d325b35,1551426178025,307,-7425.0,-8193.0,8703.0,0.0,0.0,0.0,0.0,0.0,0.0,0
76f897717d325b35,1551426178085,308,-7425.0,-8193.0,8959.0,0.0,0.0,0.0,0.0,0.0,0.0,0
76f897717d325b35,1551426178145,309,-7425.0,-8193.0,8959.0,0.0,0.0,0.0,0.0,0.0,0.0,0
76f897717d325b35,1551426178235,310,-7425.0,-8193.0,8959.0,0.0,0.0,0.0,0.0,0.0,0.0,0
76f897717d325b35,1551426178265,311,-7425.0,-8193.0,8959.0,0.0,0.0,0.0,0.0,0.0,0.0,0
76f897717d325b35,1551426178355,312,-7425.0,-8193.0,8703.0,0.0,0.0,0.0,0.0,0.0,0.0,0
76f897717d325b35,1551426178415,313,-7425.0,-8193.0,8959.0,0.0,0.0,0.0,0.0,0.0,0.0,0
76f897717d325b35,1551426178475,314,-7425.0,-8193.0,8703.0,0.0,0.0,0.0,0.0,0.0,0.0,0
76f897717d325b35,1551426178535,315,-7425.0,-8193.0,8959.0,0.0,0.0,0.0,0.0,0.0,0.0,0
76f897717d325b35,1551426178595,316,-7425.0,-8193.0,8703.0,0.0,0.0,0.0,0.0,0.0,0.0,0
76f897717d325b35,1551426178685,317,-7425.0,-8193.0,8959.0,0.0,0.0,0.0,0.0,0.0,0.0,0
76f897717d325b35,1551426178745,318,-7425.0,-8193.0,8959.0,0.0,0.0,0.0,0.0,0.0,0.0,0
76f897717d325b35,1551426178805,319,-7425.0,-8193.0,8959.0,0.0,0.0,0.0,0.0,0.0,0.0,0
76f897717d325b35,1551426178864,320,-7425.0,-8193.0,8703.0,0.0,0.0,0.0,0.0,0.0,0.0,0
76f897717d325b35,1551426178866,321,-7425.0,-8193.0,8703.0,0.0,0.0,0.0,0.0,0.0,0.0,0
76f897717d325b35,1551426178925,322,-7425.0,-8193.0,8959.0,0.0,0.0,0.0,0.0,0.0,0.0,0
76f897717d325b35,1551426179015,323,-7425.0,-8193.0,8959.0,0.0,0.0,0.0,0.0,0.0,0.0,0
76f897717d325b35,1551426179075,324,-7425.0,-8193.0,8959.0,0.0,0.0,0.0,0.0,0.0,0.0,0
76f897717d325b35,1551426179135,325,-7425.0,-8193.0,8703.0,0.0,0.0,0.0,0.0,0.0,0.0,0
76f897717d325b35,1551426179195,326,-7425.0,-8193.0,8703.0,0.0,0.0,0.0,0.0,0.0,0.0,0
76f897717d325b35,1551426179255,327,-7425.0,-7937.0,8703.0,0.0,0.0,0.0,0.0,0.0,0.0,0
76f897717d325b35,1551426179345,328,-7425.0,-8193.0,8703.0,0.0,0.0,0.0,0.0,0.0,0.0,0
76f897717d325b35,1551426179435,329,-7425.0,-8193.0,8703.0,0.0,0.0,0.0,0.0,0.0,0.0,0
76f897717d325b35,1551426179465,330,-7425.0,-8193.0,8703.0,0.0,0.0,0.0,0.0,0.0,0.0,0
76f897717d325b35,1551426179525,331,-7425.0,-7937.0,8703.0,0.0,0.0,0.0,0.0,0.0,0.0,0
76f897717d325b35,1551426179585,332,-7425.0,-8193.0,8703.0,0.0,0.0,0.0,0.0,0.0,0.0,0
76f897717d325b35,1551426179675,333,-7425.0,-8193.0,8703.0,0.0,0.0,0.0,0.0,0.0,0.0,0
76f897717d325b35,1551426179735,334,-7425.0,-8193.0,8703.0,0.0,0.0,0.0,0.0,0.0,0.0,0
76f897717d325b35,1551426179795,335,-7425.0,-7937.0,8703.0,0.0,0.0,0.0,0.0,0.0,0.0,0
76f897717d325b35,1551426179855,336,-7425.0,-8193.0,8703.0,0.0,0.0,0.0,0.0,0.0,0.0,0
76f897717d325b35,1551426179915,337,-7425.0,-8193.0,8703.0,0.0,0.0,0.0,0.0,0.0,0.0,0
76f897717d325b35,1551426180036,338,-7425.0,-8193.0,8703.0,0.0,0.0,0.0,0.0,0.0,0.0,0
76f897717d325b35,1551426180066,339,-7425.0,-8193.0,8703.0,0.0,0.0,0.0,0.0,0.0,0.0,0
76f897717d325b35,1551426180125,340,-7425.0,-8193.0,8703.0,0.0,0.0,0.0,0.0,0.0,0.0,0
76f897717d325b35,1551426180185,341,-7425.0,-7937.0,8703.0,0.0,0.0,0.0,0.0,0.0,0.0,0
76f897717d325b35,1551426180186,342,-7425.0,-7937.0,8703.0,0.0,0.0,0.0,0.0,0.0,0.0,0
76f897717d325b35,1551426180245,343,-7425.0,-8193.0,8703.0,0.0,0.0,0.0,0.0,0.0,0.0,0
76f897717d325b35,1551426180335,344,-7425.0,-8193.0,8703.0,0.0,0.0,0.0,0.0,0.0,0.0,0
76f897717d325b35,1551426180395,345,-7425.0,-7937.0,8703.0,0.0,0.0,0.0,0.0,0.0,0.0,0
76f897717d325b35,1551426180485,346,-7425.0,-7937.0,8703.0,0.0,0.0,0.0,0.0,0.0,0.0,0
76f897717d325b35,1551426180544,347,-7425.0,-8193.0,8703.0,0.0,0.0,0.0,0.0,0.0,0.0,0
76f897717d325b35,1551426180546,348,-7425.0,-8193.0,8703.0,0.0,0.0,0.0,0.0,0.0,0.0,0
76f897717d325b35,1551426180575,349,-7425.0,-8193.0,8703.0,0.0,0.0,0.0,0.0,0.0,0.0,0
76f897717d325b35,1551426180664,350,-7425.0,-8193.0,8703.0,0.0,0.0,0.0,0.0,0.0,0.0,0
76f897717d325b35,1551426180725,351,-7425.0,-8193.0,8703.0,0.0,0.0,0.0,0.0,0.0,0.0,0
76f897717d325b35,1551426180785,352,-7425.0,-7937.0,8703.0,0.0,0.0,0.0,0.0,0.0,0.0,0
76f897717d325b35,1551426180844,353,-7425.0,-8193.0,8703.0,0.0,0.0,0.0,0.0,0.0,0.0,0
76f897717d325b35,1551426180846,354,-7425.0,-8193.0,8703.0,0.0,0.0,0.0,0.0,0.0,0.0,0
76f897717d325b35,1551426180905,355,-7425.0,-7937.0,8703.0,0.0,0.0,0.0,0.0,0.0,0.0,0
76f897717d325b35,1551426180995,356,-7425.0,-8193.0,8703.0,0.0,0.0,0.0,0.0,0.0,0.0,0
76f897717d325b35,1551426181055,357,-7425.0,-8193.0,8703.0,0.0,0.0,0.0,0.0,0.0,0.0,0
76f897717d325b35,1551426181115,358,-7425.0,-7937.0,8703.0,0.0,0.0,0.0,0.0,0.0,0.0,0
76f897717d325b35,1551426181175,359,-7425.0,-7937.0,8703.0,0.0,0.0,0.0,0.0,0.0,0.0,0
76f897717d325b35,1551426181235,360,-7425.0,-8193.0,8703.0,0.0,0.0,0.0,0.0,0.0,0.0,0
76f897717d325b35,1551426181325,361,-7425.0,-8193.0,8959.0,0.0,0.0,0.0,0.0,0.0,0.0,0
76f897717d325b35,1551426181385,362,-7425.0,-8193.0,8703.0,0.0,0.0,0.0,0.0,0.0,0.0,0
76f897717d325b35,1551426181445,363,-7425.0,-8193.0,8959.0,0.0,0.0,0.0,0.0,0.0,0.0,0
76f897717d325b35,1551426181505,364,-7425.0,-8193.0,8703.0,0.0,0.0,0.0,0.0,0.0,0.0,0
76f897717d325b35,1551426181565,365,-7425.0,-8193.0,8703.0,0.0,0.0,0.0,0.0,0.0,0.0,0
76f897717d325b35,1551426181654,366,-7425.0,-8193.0,8959.0,0.0,0.0,0.0,0.0,0.0,0.0,0
76f897717d325b35,1551426181715,367,-7425.0,-8193.0,8703.0,0.0,0.0,0.0,0.0,0.0,0.0,0
76f897717d325b35,1551426181775,368,-7425.0,-8193.0,8959.0,0.0,0.0,0.0,0.0,0.0,0.0,0
76f897717d325b35,1551426181835,369,-7425.0,-7937.0,8703.0,0.0,0.0,0.0,0.0,0.0,0.0,0
76f897717d325b35,1551426181895,370,-7425.0,-8193.0,8703.0,0.0,0.0,0.0,0.0,0.0,0.0,0
76f897717d325b35,1551426181985,371,-7425.0,-7937.0,8703.0,0.0,0.0,0.0,0.0,0.0,0.0,0
76f897717d325b35,1551426182045,372,-7425.0,-8193.0,8703.0,0.0,0.0,0.0,0.0,0.0,0.0,0
76f897717d325b35,1551426182105,373,-7425.0,-8193.0,8703.0,0.0,0.0,0.0,0.0,0.0,0.0,0
76f897717d325b35,1551426182165,374,-7425.0,-8193.0,8959.0,0.0,0.0,0.0,0.0,0.0,0.0,0
76f897717d325b35,1551426182166,375,-7425.0,-8193.0,8959.0,0.0,0.0,0.0,0.0,0.0,0.0,0
76f897717d325b35,1551426182225,376,-7425.0,-7937.0,8703.0,0.0,0.0,0.0,0.0,0.0,0.0,0
76f897717d325b35,1551426182315,377,-7425.0,-8193.0,8703.0,0.0,0.0,0.0,0.0,0.0,0.0,0
76f897717d325b35,1551426182375,378,-7425.0,-8193.0,8703.0,0.0,0.0,0.0,0.0,0.0,0.0,0
76f897717d325b35,1551426182435,379,-7425.0,-8193.0,8703.0,0.0,0.0,0.0,0.0,0.0,0.0,0
76f897717d325b35,1551426182495,380,-7425.0,-8193.0,8959.0,0.0,0.0,0.0,0.0,0.0,0.0,0
76f897717d325b35,1551426182555,381,-7425.0,-7937.0,8703.0,0.0,0.0,0.0,0.0,0.0,0.0,0
76f897717d325b35,1551426182644,382,-7425.0,-7937.0,8703.0,0.0,0.0,0.0,0.0,0.0,0.0,0
76f897717d325b35,1551426182705,383,-7425.0,-8193.0,8959.0,0.0,0.0,0.0,0.0,0.0,0.0,0
76f897717d325b35,1551426182765,384,-7425.0,-8193.0,8703.0,0.0,0.0,0.0,0.0,0.0,0.0,0
76f897717d325b35,1551426182824,385,-7425.0,-8193.0,8703.0,0.0,0.0,0.0,0.0,0.0,0.0,0
76f897717d325b35,1551426182826,386,-7425.0,-8193.0,8703.0,0.0,0.0,0.0,0.0,0.0,0.0,0
76f897717d325b35,1551426182885,387,-7425.0,-8193.0,8703.0,0.0,0.0,0.0,0.0,0.0,0.0,0
76f897717d325b35,1551426183005,388,-7425.0,-8193.0,8959.0,0.0,0.0,0.0,0.0,0.0,0.0,0
76f897717d325b35,1551426183035,389,-7425.0,-8193.0,8703.0,0.0,0.0,0.0,0.0,0.0,0.0,0
76f897717d325b35,1551426183095,390,-7425.0,-8193.0,8959.0,0.0,0.0,0.0,0.0,0.0,0.0,0
76f897717d325b35,1551426183155,391,-7425.0,-8193.0,8959.0,0.0,0.0,0.0,0.0,0.0,0.0,0
76f897717d325b35,1551426183215,392,-7425.0,-8193.0,8959.0,0.0,0.0,0.0,0.0,0.0,0.0,0
76f897717d325b35,1551426183305,393,-7425.0,-8193.0,8703.0,0.0,0.0,0.0,0.0,0.0,0.0,0
76f897717d325b35,1551426183365,394,-7425.0,-8193.0,8959.0,0.0,0.0,0.0,0.0,0.0,0.0,0
76f897717d325b35,1551426183425,395,-7425.0,-8193.0,8959.0,0.0,0.0,0.0,0.0,0.0,0.0,0
76f897717d325b35,1551426183515,396,-7425.0,-8193.0,8703.0,0.0,0.0,0.0,0.0,0.0,0.0,0
76f897717d325b35,1551426183545,397,-7425.0,-8193.0,8959.0,0.0,0.0,0.0,0.0,0.0,0.0,0
76f897717d325b35,1551426183635,398,-7425.0,-8193.0,8703.0,0.0,0.0,0.0,0.0,0.0,0.0,0
76f897717d325b35,1551426183695,399,-7425.0,-8193.0,8703.0,0.0,0.0,0.0,0.0,0.0,0.0,0
76f897717d325b35,1551426183755,400,-7425.0,-8193.0,8959.0,0.0,0.0,0.0,0.0,0.0,0.0,0
76f897717d325b35,1551426183815,401,-7425.0,-8193.0,8959.0,0.0,0.0,0.0,0.0,0.0,0.0,0
76f897717d325b35,1551426183875,402,-7425.0,-8193.0,8959.0,0.0,0.0,0.0,0.0,0.0,0.0,0
76f897717d325b35,1551426183965,403,-7425.0,-8193.0,8959.0,0.0,0.0,0.0,0.0,0.0,0.0,0
76f897717d325b35,1551426184025,404,-7425.0,-8193.0,8959.0,0.0,0.0,0.0,0.0,0.0,0.0,0
76f897717d325b35,1551426184085,405,-7425.0,-8193.0,8959.0,0.0,0.0,0.0,0.0,0.0,0.0,0
76f897717d325b35,1551426184145,406,-7425.0,-8193.0,8959.0,0.0,0.0,0.0,0.0,0.0,0.0,0
76f897717d325b35,1551426184205,407,-7425.0,-8193.0,8959.0,0.0,0.0,0.0,0.0,0.0,0.0,0
76f897717d325b35,1551426184295,408,-7425.0,-8193.0,8703.0,0.0,0.0,0.0,0.0,0.0,0.0,0
76f897717d325b35,1551426184355,409,-7425.0,-8193.0,8959.0,0.0,0.0,0.0,0.0,0.0,0.0,0
76f897717d325b35,1551426184415,410,-7425.0,-7937.0,8703.0,0.0,0.0,0.0,0.0,0.0,0.0,0
76f897717d325b35,1551426184475,411,-7425.0,-8193.0,8959.0,0.0,0.0,0.0,0.0,0.0,0.0,0
76f897717d325b35,1551426184476,412,-7425.0,-8193.0,8959.0,0.0,0.0,0.0,0.0,0.0,0.0,0
76f897717d325b35,1551426184535,413,-7425.0,-8193.0,8703.0,0.0,0.0,0.0,0.0,0.0,0.0,0
76f897717d325b35,1551426184625,414,-7425.0,-8193.0,8959.0,0.0,0.0,0.0,0.0,0.0,0.0,0
76f897717d325b35,1551426184685,415,-7425.0,-8193.0,8703.0,0.0,0.0,0.0,0.0,0.0,0.0,0
76f897717d325b35,1551426184745,416,-7425.0,-8193.0,8959.0,0.0,0.0,0.0,0.0,0.0,0.0,0
76f897717d325b35,1551426184805,417,-7425.0,-8193.0,8959.0,0.0,0.0,0.0,0.0,0.0,0.0,0
76f897717d325b35,1551426184865,418,-7425.0,-8193.0,8959.0,0.0,0.0,0.0,0.0,0.0,0.0,0
76f897717d325b35,1551426184955,419,-7425.0,-8193.0,8959.0,0.0,0.0,0.0,0.0,0.0,0.0,0
76f897717d325b35,1551426185015,420,-7425.0,-8193.0,8959.0,0.0,0.0,0.0,0.0,0.0,0.0,0
76f897717d325b35,1551426185075,421,-7425.0,-7937.0,8703.0,0.0,0.0,0.0,0.0,0.0,0.0,0
76f897717d325b35,1551426185135,422,-7425.0,-8193.0,8703.0,0.0,0.0,0.0,0.0,0.0,0.0,0
76f897717d325b35,1551426185195,423,-7425.0,-8193.0,8959.0,0.0,0.0,0.0,0.0,0.0,0.0,0
76f897717d325b35,1551426185285,424,-7425.0,-8193.0,8703.0,0.0,0.0,0.0,0.0,0.0,0.0,0
76f897717d325b35,1551426185345,425,-7425.0,-8193.0,8703.0,0.0,0.0,0.0,0.0,0.0,0.0,0
76f897717d325b35,1551426185405,426,-7425.0,-8193.0,8959.0,0.0,0.0,0.0,0.0,0.0,0.0,0
76f897717d325b35,1551426185465,427,-7425.0,-8193.0,8703.0,0.0,0.0,0.0,0.0,0.0,0.0,0
76f897717d325b35,1551426185525,428,-7425.0,-8193.0,8959.0,0.0,0.0,0.0,0.0,0.0,0.0,0
76f897717d325b35,1551426185615,429,-7425.0,-8193.0,8959.0,0.0,0.0,0.0,0.0,0.0,0.0,0
76f897717d325b35,1551426185675,430,-7425.0,-8193.0,8703.0,0.0,0.0,0.0,0.0,0.0,0.0,0
76f897717d325b35,1551426185735,431,-7425.0,-8193.0,8703.0,0.0,0.0,0.0,0.0,0.0,0.0,0
76f897717d325b35,1551426185795,432,-7425.0,-8193.0,8959.0,0.0,0.0,0.0,0.0,0.0,0.0,0
76f897717d325b35,1551426185855,433,-7425.0,-8193.0,8959.0,0.0,0.0,0.0,0.0,0.0,0.0,0
76f897717d325b35,1551426185945,434,-7425.0,-8193.0,8959.0,0.0,0.0,0.0,0.0,0.0,0.0,0
76f897717d325b35,1551426186005,435,-7425.0,-8193.0,8959.0,0.0,0.0,0.0,0.0,0.0,0.0,0
76f897717d325b35,1551426186065,436,-7425.0,-8193.0,8703.0,0.0,0.0,0.0,0.0,0.0,0.0,0
76f897717d325b35,1551426186125,437,-7425.0,-8193.0,8703.0,0.0,0.0,0.0,0.0,0.0,0.0,0
76f897717d325b35,1551426186185,438,-7425.0,-8193.0,8703.0,0.0,0.0,0.0,0.0,0.0,0.0,0
76f897717d325b35,1551426186275,439,-7425.0,-8193.0,8959.0,0.0,0.0,0.0,0.0,0.0,0.0,0
76f897717d325b35,1551426186335,440,-7425.0,-8193.0,8703.0,0.0,0.0,0.0,0.0,0.0,0.0,0
76f897717d325b35,1551426186395,441,-7425.0,-8193.0,8703.0,0.0,0.0,0.0,0.0,0.0,0.0,0
76f897717d325b35,1551426186455,442,-7425.0,-8193.0,8959.0,0.0,0.0,0.0,0.0,0.0,0.0,0
76f897717d325b35,1551426186515,443,-7425.0,-8193.0,8959.0,0.0,0.0,0.0,0.0,0.0,0.0,0
76f897717d325b35,1551426186605,444,-7425.0,-8193.0,8959.0,0.0,0.0,0.0,0.0,0.0,0.0,0
76f897717d325b35,1551426186695,445,-7425.0,-8193.0,8703.0,0.0,0.0,0.0,0.0,0.0,0.0,0
76f897717d325b35,1551426186725,446,-7425.0,-8193.0,8959.0,0.0,0.0,0.0,0.0,0.0,0.0,0
76f897717d325b35,1551426186785,447,-7425.0,-8193.0,8703.0,0.0,0.0,0.0,0.0,0.0,0.0,0
76f897717d325b35,1551426186845,448,-7425.0,-8193.0,8959.0,0.0,0.0,0.0,0.0,0.0,0.0,0
76f897717d325b35,1551426186935,449,-7425.0,-8193.0,8959.0,0.0,0.0,0.0,0.0,0.0,0.0,0
76f897717d325b35,1551426186995,450,-7425.0,-8193.0,8959.0,0.0,0.0,0.0,0.0,0.0,0.0,0
76f897717d325b35,1551426187055,451,-7425.0,-8193.0,8959.0,0.0,0.0,0.0,0.0,0.0,0.0,0
76f897717d325b35,1551426187145,452,-7425.0,-8193.0,8959.0,0.0,0.0,0.0,0.0,0.0,0.0,0
76f897717d325b35,1551426187205,453,-7425.0,-8193.0,8959.0,0.0,0.0,0.0,0.0,0.0,0.0,0
76f897717d325b35,1551426187265,454,-7425.0,-8193.0,8959.0,0.0,0.0,0.0,0.0,0.0,0.0,0
76f897717d325b35,1551426187325,455,-7425.0,-8193.0,8959.0,0.0,0.0,0.0,0.0,0.0,0.0,0
76f897717d325b35,1551426187385,456,-7425.0,-8193.0,8959.0,0.0,0.0,0.0,0.0,0.0,0.0,0
76f897717d325b35,1551426187445,457,-7425.0,-8193.0,8959.0,0.0,0.0,0.0,0.0,0.0,0.0,0
76f897717d325b35,1551426187505,458,-7425.0,-8193.0,8959.0,0.0,0.0,0.0,0.0,0.0,0.0,0
76f897717d325b35,1551426187595,459,-7425.0,-8193.0,8959.0,0.0,0.0,0.0,0.0,0.0,0.0,0
76f897717d325b35,1551426187654,460,-7425.0,-8193.0,8959.0,0.0,0.0,0.0,0.0,0.0,0.0,0
76f897717d325b35,1551426187715,461,-7425.0,-8193.0,8959.0,0.0,0.0,0.0,0.0,0.0,0.0,0
76f897717d325b35,1551426187775,462,-7425.0,-8193.0,8959.0,0.0,0.0,0.0,0.0,0.0,0.0,0
76f897717d325b35,1551426187835,463,-7425.0,-8193.0,8703.0,0.0,0.0,0.0,0.0,0.0,0.0,0
76f897717d325b35,1551426187925,464,-7425.0,-8193.0,8959.0,0.0,0.0,0.0,0.0,0.0,0.0,0
76f897717d325b35,1551426187985,465,-7425.0,-8193.0,8959.0,0.0,0.0,0.0,0.0,0.0,0.0,0
76f897717d325b35,1551426188045,466,-7425.0,-8193.0,8959.0,0.0,0.0,0.0,0.0,0.0,0.0,0
76f897717d325b35,1551426188105,467,-7425.0,-8193.0,8959.0,0.0,0.0,0.0,0.0,0.0,0.0,0
76f897717d325b35,1551426188165,468,-7425.0,-8193.0,8959.0,0.0,0.0,0.0,0.0,0.0,0.0,0
76f897717d325b35,1551426188255,469,-7425.0,-8193.0,8959.0,0.0,0.0,0.0,0.0,0.0,0.0,0
76f897717d325b35,1551426188315,470,-7425.0,-8193.0,8959.0,0.0,0.0,0.0,0.0,0.0,0.0,0
76f897717d325b35,1551426188375,471,-7425.0,-8193.0,8959.0,0.0,0.0,0.0,0.0,0.0,0.0,0
76f897717d325b35,1551426188435,472,-7425.0,-7937.0,8959.0,0.0,0.0,0.0,0.0,0.0,0.0,0
76f897717d325b35,1551426188495,473,-7425.0,-8193.0,8959.0,0.0,0.0,0.0,0.0,0.0,0.0,0
76f897717d325b35,1551426188585,474,-7425.0,-8193.0,8959.0,0.0,0.0,0.0,0.0,0.0,0.0,0
76f897717d325b35,1551426188644,475,-7425.0,-8193.0,8959.0,0.0,0.0,0.0,0.0,0.0,0.0,0
76f897717d325b35,1551426188705,476,-7425.0,-8193.0,8959.0,0.0,0.0,0.0,0.0,0.0,0.0,0
76f897717d325b35,1551426188765,477,-7425.0,-8193.0,8703.0,0.0,0.0,0.0,0.0,0.0,0.0,0
76f897717d325b35,1551426188825,478,-7425.0,-7937.0,8959.0,0.0,0.0,0.0,0.0,0.0,0.0,0
76f897717d325b35,1551426188915,479,-7425.0,-8193.0,8703.0,0.0,0.0,0.0,0.0,0.0,0.0,0
76f897717d325b35,1551426188975,480,-7425.0,-7937.0,8959.0,0.0,0.0,0.0,0.0,0.0,0.0,0
76f897717d325b35,1551426189035,481,-7425.0,-8193.0,8959.0,0.0,0.0,0.0,0.0,0.0,0.0,0
76f897717d325b35,1551426189095,482,-7425.0,-8193.0,8959.0,0.0,0.0,0.0,0.0,0.0,0.0,0
76f897717d325b35,1551426189155,483,-7425.0,-8193.0,8959.0,0.0,0.0,0.0,0.0,0.0,0.0,0
76f897717d325b35,1551426189245,484,-7425.0,-8193.0,8703.0,0.0,0.0,0.0,0.0,0.0,0.0,0
76f897717d325b35,1551426189305,485,-7425.0,-8193.0,8703.0,0.0,0.0,0.0,0.0,0.0,0.0,0
76f897717d325b35,1551426189365,486,-7425.0,-8193.0,8703.0,0.0,0.0,0.0,0.0,0.0,0.0,0
76f897717d325b35,1551426189425,487,-7425.0,-7937.0,8959.0,0.0,0.0,0.0,0.0,0.0,0.0,0
76f897717d325b35,1551426189485,488,-7425.0,-8193.0,8959.0,0.0,0.0,0.0,0.0,0.0,0.0,0
76f897717d325b35,1551426189575,489,-7425.0,-8193.0,8959.0,0.0,0.0,0.0,0.0,0.0,0.0,0
76f897717d325b35,1551426189664,490,-7425.0,-8193.0,8959.0,0.0,0.0,0.0,0.0,0.0,0.0,0
76f897717d325b35,1551426189695,491,-7425.0,-8193.0,8959.0,0.0,0.0,0.0,0.0,0.0,0.0,0
76f897717d325b35,1551426189755,492,-7425.0,-8193.0,8959.0,0.0,0.0,0.0,0.0,0.0,0.0,0
76f897717d325b35,1551426189815,493,-7425.0,-8193.0,8703.0,0.0,0.0,0.0,0.0,0.0,0.0,0
76f897717d325b35,1551426189905,494,-7425.0,-8193.0,8959.0,0.0,0.0,0.0,0.0,0.0,0.0,0
76f897717d325b35,1551426189965,495,-7425.0,-8193.0,8959.0,0.0,0.0,0.0,0.0,0.0,0.0,0
76f897717d325b35,1551426190025,496,-7425.0,-8193.0,8959.0,0.0,0.0,0.0,0.0,0.0,0.0,0
76f897717d325b35,1551426190085,497,-7425.0,-8193.0,8703.0,0.0,0.0,0.0,0.0,0.0,0.0,0
76f897717d325b35,1551426190175,498,-7425.0,-8193.0,8703.0,0.0,0.0,0.0,0.0,0.0,0.0,0
76f897717d325b35,1551426190235,499,-7425.0,-8193.0,8703.0,0.0,0.0,0.0,0.0,0.0,0.0,0
76f897717d325b35,1551426190295,500,-7425.0,-8193.0,8703.0,0.0,0.0,0.0,0.0,0.0,0.0,0
76f897717d325b35,1551426190355,501,-7425.0,-8193.0,8703.0,0.0,0.0,0.0,0.0,0.0,0.0,0
76f897717d325b35,1551426190415,502,-7425.0,-8193.0,8703.0,0.0,0.0,0.0,0.0,0.0,0.0,0
76f897717d325b35,1551426190475,503,-7425.0,-8193.0,8703.0,0.0,0.0,0.0,0.0,0.0,0.0,0
76f897717d325b35,1551426190565,504,-7425.0,-8193.0,8703.0,0.0,0.0,0.0,0.0,0.0,0.0,0
76f897717d325b35,1551426190625,505,-7425.0,-8193.0,8959.0,0.0,0.0,0.0,0.0,0.0,0.0,0
76f897717d325b35,1551426190685,506,-7425.0,-8193.0,8959.0,0.0,0.0,0.0,0.0,0.0,0.0,0
76f897717d325b35,1551426190744,507,-7425.0,-8193.0,8703.0,0.0,0.0,0.0,0.0,0.0,0.0,0
76f897717d325b35,1551426190805,508,-7425.0,-8193.0,8703.0,0.0,0.0,0.0,0.0,0.0,0.0,0
76f897717d325b35,1551426190895,509,-7425.0,-8193.0,8703.0,0.0,0.0,0.0,0.0,0.0,0.0,0
76f897717d325b35,1551426190955,510,-7425.0,-8193.0,8703.0,0.0,0.0,0.0,0.0,0.0,0.0,0
76f897717d325b35,1551426191015,511,-7425.0,-8193.0,8959.0,0.0,0.0,0.0,0.0,0.0,0.0,0
76f897717d325b35,1551426191075,512,-7425.0,-8193.0,8959.0,0.0,0.0,0.0,0.0,0.0,0.0,0
76f897717d325b35,1551426191135,513,-7425.0,-8193.0,8959.0,0.0,0.0,0.0,0.0,0.0,0.0,0
76f897717d325b35,1551426191225,514,-7425.0,-8193.0,8703.0,0.0,0.0,0.0,0.0,0.0,0.0,0
76f897717d325b35,1551426191285,515,-7425.0,-8193.0,8959.0,0.0,0.0,0.0,0.0,0.0,0.0,0
76f897717d325b35,1551426191345,516,-7425.0,-8193.0,8703.0,0.0,0.0,0.0,0.0,0.0,0.0,0
76f897717d325b35,1551426191405,517,-7425.0,-8193.0,8703.0,0.0,0.0,0.0,0.0,0.0,0.0,0
76f897717d325b35,1551426191465,518,-7425.0,-8193.0,8959.0,0.0,0.0,0.0,0.0,0.0,0.0,0
76f897717d325b35,1551426191555,519,-7425.0,-8193.0,8959.0,0.0,0.0,0.0,0.0,0.0,0.0,0
76f897717d325b35,1551426191615,520,-7425.0,-8193.0,8959.0,0.0,0.0,0.0,0.0,0.0,0.0,0
76f897717d325b35,1551426191675,521,-7425.0,-8193.0,8703.0,0.0,0.0,0.0,0.0,0.0,0.0,0
76f897717d325b35,1551426191735,522,-7425.0,-8193.0,8959.0,0.0,0.0,0.0,0.0,0.0,0.0,0
76f897717d325b35,1551426191795,523,-7425.0,-8193.0,8703.0,0.0,0.0,0.0,0.0,0.0,0.0,0
76f897717d325b35,1551426191885,524,-7425.0,-8193.0,8703.0,0.0,0.0,0.0,0.0,0.0,0.0,0
76f897717d325b35,1551426191945,525,-7425.0,-8193.0,8959.0,0.0,0.0,0.0,0.0,0.0,0.0,0
76f897717d325b35,1551426192005,526,-7425.0,-7937.0,8703.0,0.0,0.0,0.0,0.0,0.0,0.0,0
76f897717d325b35,1551426192065,527,-7425.0,-8193.0,8959.0,0.0,0.0,0.0,0.0,0.0,0.0,0
76f897717d325b35,1551426192125,528,-7425.0,-8193.0,8959.0,0.0,0.0,0.0,0.0,0.0,0.0,0
76f897717d325b35,1551426192215,529,-7425.0,-8193.0,8959.0,0.0,0.0,0.0,0.0,0.0,0.0,0
76f897717d325b35,1551426192274,530,-7425.0,-8193.0,8959.0,0.0,0.0,0.0,0.0,0.0,0.0,0
76f897717d325b35,1551426192335,531,-7425.0,-8193.0,8959.0,0.0,0.0,0.0,0.0,0.0,0.0,0
76f897717d325b35,1551426192395,532,-7425.0,-8193.0,8959.0,0.0,0.0,0.0,0.0,0.0,0.0,0
76f897717d325b35,1551426192455,533,-7425.0,-8193.0,8703.0,0.0,0.0,0.0,0.0,0.0,0.0,0
76f897717d325b35,1551426192545,534,-7425.0,-8193.0,8959.0,0.0,0.0,0.0,0.0,0.0,0.0,0
76f897717d325b35,1551426192605,535,-7425.0,-8193.0,8959.0,0.0,0.0,0.0,0.0,0.0,0.0,0
76f897717d325b35,1551426192695,536,-7425.0,-8193.0,8959.0,0.0,0.0,0.0,0.0,0.0,0.0,0
76f897717d325b35,1551426192725,537,-7425.0,-8193.0,8959.0,0.0,0.0,0.0,0.0,0.0,0.0,0
76f897717d325b35,1551426192785,538,-7425.0,-7937.0,8959.0,0.0,0.0,0.0,0.0,0.0,0.0,0
76f897717d325b35,1551426192905,539,-7681.0,-8193.0,9215.0,0.0,0.0,0.0,0.0,0.0,0.0,0
76f897717d325b35,1551426192935,540,-7425.0,-7937.0,9471.0,0.0,0.0,0.0,0.0,0.0,0.0,0
76f897717d325b35,1551426192995,541,-7425.0,-7937.0,9471.0,0.0,0.0,0.0,0.0,0.0,0.0,0
76f897717d325b35,1551426193055,542,-7169.0,-7937.0,9727.0,0.0,0.0,0.0,0.0,0.0,0.0,0
76f897717d325b35,1551426193115,543,-7681.0,-8449.0,9727.0,0.0,0.0,0.0,0.0,0.0,0.0,0
76f897717d325b35,1551426193205,544,-7425.0,-7937.0,9727.0,0.0,0.0,0.0,0.0,0.0,0.0,0
76f897717d325b35,1551426193265,545,-7681.0,-7937.0,9727.0,0.0,0.0,0.0,0.0,0.0,0.0,0
76f897717d325b35,1551426193355,546,-7425.0,-7937.0,10239.0,0.0,0.0,0.0,0.0,0.0,0.0,0
76f897717d325b35,1551426193385,547,-7169.0,-7681.0,10239.0,0.0,0.0,0.0,0.0,0.0,0.0,0
76f897717d325b35,1551426193445,548,-6657.0,-7937.0,10495.0,0.0,0.0,0.0,0.0,0.0,0.0,0
76f897717d325b35,1551426193535,549,-7937.0,-9985.0,8447.0,0.0,0.0,0.0,0.0,0.0,0.0,0
76f897717d325b35,1551426193595,550,-7425.0,-8193.0,9727.0,0.0,0.0,0.0,0.0,0.0,0.0,0
76f897717d325b35,1551426193655,551,-7425.0,-8705.0,8703.0,0.0,0.0,0.0,0.0,0.0,0.0,0
76f897717d325b35,1551426193715,552,-6401.0,-7937.0,9471.0,0.0,0.0,0.0,0.0,0.0,0.0,0
76f897717d325b35,1551426193775,553,-6657.0,-8193.0,9471.0,0.0,0.0,0.0,0.0,0.0,0.0,0
76f897717d325b35,1551426193865,554,-6657.0,-8449.0,9471.0,0.0,0.0,0.0,0.0,0.0,0.0,0
76f897717d325b35,1551426193925,555,-6145.0,-8193.0,9983.0,0.0,0.0,0.0,0.0,0.0,0.0,0
76f897717d325b35,1551426193985,556,-5889.0,-8193.0,9983.0,0.0,0.0,0.0,0.0,0.0,0.0,0
76f897717d325b35,1551426194045,557,-5889.0,-7937.0,9983.0,0.0,0.0,0.0,0.0,0.0,0.0,0
76f897717d325b35,1551426194105,558,-5889.0,-8449.0,10751.0,0.0,0.0,0.0,0.0,0.0,0.0,0
76f897717d325b35,1551426194195,559,-5633.0,-7937.0,11263.0,0.0,0.0,0.0,0.0,0.0,0.0,0
76f897717d325b35,1551426194255,560,-5377.0,-8961.0,11007.0,0.0,0.0,0.0,0.0,0.0,0.0,0
76f897717d325b35,1551426194315,561,-5121.0,-7425.0,10751.0,0.0,0.0,0.0,0.0,0.0,0.0,0
76f897717d325b35,1551426194375,562,-5633.0,-7681.0,11007.0,0.0,0.0,0.0,0.0,0.0,0.0,0
76f897717d325b35,1551426194435,563,-5889.0,-6913.0,11775.0,0.0,0.0,0.0,0.0,0.0,0.0,0
76f897717d325b35,1551426194525,564,-5633.0,-7681.0,12031.0,0.0,0.0,0.0,0.0,0.0,0.0,0
76f897717d325b35,1551426194585,565,-5377.0,-7169.0,12031.0,0.0,0.0,0.0,0.0,0.0,0.0,0
76f897717d325b35,1551426194644,566,-5889.0,-7681.0,12543.0,0.0,0.0,0.0,0.0,0.0,0.0,0
76f897717d325b35,1551426194705,567,-6145.0,-7937.0,12287.0,0.0,0.0,0.0,0.0,0.0,0.0,0
76f897717d325b35,1551426194765,568,-6913.0,-8449.0,11775.0,0.0,0.0,0.0,0.0,0.0,0.0,0
76f897717d325b35,1551426194855,569,-7425.0,-7937.0,11263.0,0.0,0.0,0.0,0.0,0.0,0.0,0
76f897717d325b35,1551426194915,570,-6913.0,-8193.0,9983.0,0.0,0.0,0.0,0.0,0.0,0.0,0
76f897717d325b35,1551426194975,571,-7425.0,-8193.0,9727.0,0.0,0.0,0.0,0.0,0.0,0.0,0
76f897717d325b35,1551426195035,572,-7681.0,-8449.0,8959.0,0.0,0.0,0.0,0.0,0.0,0.0,0
76f897717d325b35,1551426195095,573,-7681.0,-8193.0,9215.0,0.0,0.0,0.0,0.0,0.0,0.0,0
76f897717d325b35,1551426195215,574,-7681.0,-7681.0,8959.0,0.0,0.0,0.0,0.0,0.0,0.0,0
76f897717d325b35,1551426195245,575,-7681.0,-7681.0,8703.0,0.0,0.0,0.0,0.0,0.0,0.0,0
76f897717d325b35,1551426195305,576,-7681.0,-7681.0,8447.0,0.0,0.0,0.0,0.0,0.0,0.0,0
76f897717d325b35,1551426195365,577,-7681.0,-7681.0,8191.0,0.0,0.0,0.0,0.0,0.0,0.0,0
76f897717d325b35,1551426195425,578,-7937.0,-7681.0,7679.0,0.0,0.0,0.0,0.0,0.0,0.0,0
76f897717d325b35,1551426195515,579,-7681.0,-7425.0,7167.0,0.0,0.0,0.0,0.0,0.0,0.0,0
76f897717d325b35,1551426195575,580,-7681.0,-7169.0,7423.0,0.0,0.0,0.0,0.0,0.0,0.0,0
76f897717d325b35,1551426195634,581,-7681.0,-6657.0,6143.0,0.0,0.0,0.0,0.0,0.0,0.0,0
76f897717d325b35,1551426195725,582,-7425.0,-7169.0,6911.0,0.0,0.0,0.0,0.0,0.0,0.0,0
76f897717d325b35,1551426195755,583,-7937.0,-7937.0,7679.0,0.0,0.0,0.0,0.0,0.0,0.0,0
76f897717d325b35,1551426195874,584,-7425.0,-7425.0,6911.0,0.0,0.0,0.0,0.0,0.0,0.0,0
76f897717d325b35,1551426195905,585,-7681.0,-7169.0,6399.0,0.0,0.0,0.0,0.0,0.0,0.0,0
76f897717d325b35,1551426195965,586,-7425.0,-6913.0,6655.0,0.0,0.0,0.0,0.0,0.0,0.0,0
76f897717d325b35,1551426196025,587,-7169.0,-6913.0,6655.0,0.0,0.0,0.0,0.0,0.0,0.0,0
76f897717d325b35,1551426196115,588,-7425.0,-6913.0,6655.0,0.0,0.0,0.0,0.0,0.0,0.0,0
76f897717d325b35,1551426196175,589,-7425.0,-6657.0,6399.0,0.0,0.0,0.0,0.0,0.0,0.0,0
76f897717d325b35,1551426196235,590,-7425.0,-6657.0,6143.0,0.0,0.0,0.0,0.0,0.0,0.0,0
76f897717d325b35,1551426196325,591,-7425.0,-6657.0,6143.0,0.0,0.0,0.0,0.0,0.0,0.0,0
76f897717d325b35,1551426196474,592,-7425.0,-6657.0,6399.0,0.0,0.0,0.0,0.0,0.0,0.0,0
76f897717d325b35,1551426196475,593,-7425.0,-6913.0,6399.0,0.0,0.0,0.0,0.0,0.0,0.0,0
76f897717d325b35,1551426196535,594,-7425.0,-6913.0,6399.0,0.0,0.0,0.0,0.0,0.0,0.0,0
76f897717d325b35,1551426196565,595,-7425.0,-6657.0,6399.0,0.0,0.0,0.0,0.0,0.0,0.0,0
76f897717d325b35,1551426196625,596,-7425.0,-6913.0,6143.0,0.0,0.0,0.0,0.0,0.0,0.0,0
76f897717d325b35,1551426196685,597,-7425.0,-6913.0,6399.0,0.0,0.0,0.0,0.0,0.0,0.0,0
76f897717d325b35,1551426196774,598,-7425.0,-6913.0,6399.0,0.0,0.0,0.0,0.0,0.0,0.0,0
76f897717d325b35,1551426196835,599,-7169.0,-6913.0,6399.0,0.0,0.0,0.0,0.0,0.0,0.0,0
76f897717d325b35,1551426196895,600,-7425.0,-6913.0,6143.0,0.0,0.0,0.0,0.0,0.0,0.0,0
76f897717d325b35,1551426196955,601,-7425.0,-6913.0,6143.0,0.0,0.0,0.0,0.0,0.0,0.0,0
76f897717d325b35,1551426197015,602,-7425.0,-6657.0,6143.0,0.0,0.0,0.0,0.0,0.0,0.0,0
76f897717d325b35,1551426197074,603,-7425.0,-6913.0,6399.0,0.0,0.0,0.0,0.0,0.0,0.0,0
76f897717d325b35,1551426197165,604,-7425.0,-6657.0,6399.0,0.0,0.0,0.0,0.0,0.0,0.0,0
76f897717d325b35,1551426197225,605,-7425.0,-6913.0,6143.0,0.0,0.0,0.0,0.0,0.0,0.0,0
76f897717d325b35,1551426197285,606,-7425.0,-6913.0,6143.0,0.0,0.0,0.0,0.0,0.0,0.0,0
76f897717d325b35,1551426197345,607,-7425.0,-6913.0,6399.0,0.0,0.0,0.0,0.0,0.0,0.0,0
76f897717d325b35,1551426197404,608,-7425.0,-6913.0,6399.0,0.0,0.0,0.0,0.0,0.0,0.0,0
76f897717d325b35,1551426197495,609,-7425.0,-6913.0,6143.0,0.0,0.0,0.0,0.0,0.0,0.0,0
76f897717d325b35,1551426197555,610,-7425.0,-6913.0,6399.0,0.0,0.0,0.0,0.0,0.0,0.0,0
76f897717d325b35,1551426197644,611,-7169.0,-6913.0,6399.0,0.0,0.0,0.0,0.0,0.0,0.0,0
76f897717d325b35,1551426197674,612,-7169.0,-6913.0,6143.0,0.0,0.0,0.0,0.0,0.0,0.0,0
76f897717d325b35,1551426197735,613,-7425.0,-6913.0,6399.0,0.0,0.0,0.0,0.0,0.0,0.0,0
76f897717d325b35,1551426197825,614,-7425.0,-6913.0,6399.0,0.0,0.0,0.0,0.0,0.0,0.0,0
76f897717d325b35,1551426197885,615,-7425.0,-6913.0,6399.0,0.0,0.0,0.0,0.0,0.0,0.0,0
76f897717d325b35,1551426197974,616,-7425.0,-6913.0,6399.0,0.0,0.0,0.0,0.0,0.0,0.0,0
76f897717d325b35,1551426198004,617,-7425.0,-6913.0,6399.0,0.0,0.0,0.0,0.0,0.0,0.0,0
76f897717d325b35,1551426198065,618,-7169.0,-6913.0,6399.0,0.0,0.0,0.0,0.0,0.0,0.0,0
76f897717d325b35,1551426198155,619,-7425.0,-7169.0,6399.0,0.0,0.0,0.0,0.0,0.0,0.0,0
76f897717d325b35,1551426198215,620,-7169.0,-7169.0,6399.0,0.0,0.0,0.0,0.0,0.0,0.0,0
76f897717d325b35,1551426198274,621,-7425.0,-6913.0,6399.0,0.0,0.0,0.0,0.0,0.0,0.0,0
76f897717d325b35,1551426198365,622,-7425.0,-6913.0,6399.0,0.0,0.0,0.0,0.0,0.0,0.0,0
76f897717d325b35,1551426198395,623,-7169.0,-6913.0,6399.0,0.0,0.0,0.0,0.0,0.0,0.0,0
76f897717d325b35,1551426198515,624,-7425.0,-6913.0,6143.0,0.0,0.0,0.0,0.0,0.0,0.0,0
76f897717d325b35,1551426198664,625,-7169.0,-6913.0,6399.0,0.0,0.0,0.0,0.0,0.0,0.0,0
76f897717d325b35,1551426198665,626,-7425.0,-6913.0,6399.0,0.0,0.0,0.0,0.0,0.0,0.0,0
76f897717d325b35,1551426198667,627,-7425.0,-6913.0,6143.0,0.0,0.0,0.0,0.0,0.0,0.0,0
76f897717d325b35,1551426198755,628,-7425.0,-6913.0,6143.0,0.0,0.0,0.0,0.0,0.0,0.0,0
76f897717d325b35,1551426198815,629,-7425.0,-6913.0,6143.0,0.0,0.0,0.0,0.0,0.0,0.0,0
76f897717d325b35,1551426198905,630,-7425.0,-6913.0,6399.0,0.0,0.0,0.0,0.0,0.0,0.0,0
76f897717d325b35,1551426198965,631,-7169.0,-6913.0,6399.0,0.0,0.0,0.0,0.0,0.0,0.0,0
76f897717d325b35,1551426198994,632,-7169.0,-6913.0,6399.0,0.0,0.0,0.0,0.0,0.0,0.0,0
76f897717d325b35,1551426199085,633,-7425.0,-6913.0,6399.0,0.0,0.0,0.0,0.0,0.0,0.0,0
76f897717d325b35,1551426199145,634,-7169.0,-6913.0,6399.0,0.0,0.0,0.0,0.0,0.0,0.0,0
76f897717d325b35,1551426199204,635,-7425.0,-6913.0,6399.0,0.0,0.0,0.0,0.0,0.0,0.0,0
76f897717d325b35,1551426199264,636,-7169.0,-6913.0,6399.0,0.0,0.0,0.0,0.0,0.0,0.0,0
76f897717d325b35,1551426199355,637,-7425.0,-6913.0,6399.0,0.0,0.0,0.0,0.0,0.0,0.0,0
76f897717d325b35,1551426199415,638,-7425.0,-6913.0,6399.0,0.0,0.0,0.0,0.0,0.0,0.0,0
76f897717d325b35,1551426199474,639,-7425.0,-6913.0,6399.0,0.0,0.0,0.0,0.0,0.0,0.0,0
76f897717d325b35,1551426199565,640,-7169.0,-6913.0,6399.0,0.0,0.0,0.0,0.0,0.0,0.0,0
76f897717d325b35,1551426199595,641,-7425.0,-6913.0,6399.0,0.0,0.0,0.0,0.0,0.0,0.0,0
76f897717d325b35,1551426199655,642,-7169.0,-6913.0,6399.0,0.0,0.0,0.0,0.0,0.0,0.0,0
76f897717d325b35,1551426199715,643,-7425.0,-6913.0,6399.0,0.0,0.0,0.0,0.0,0.0,0.0,0
76f897717d325b35,1551426199864,644,-7425.0,-6913.0,6399.0,0.0,0.0,0.0,0.0,0.0,0.0,0
76f897717d325b35,1551426199865,645,-7425.0,-6913.0,6399.0,0.0,0.0,0.0,0.0,0.0,0.0,0
76f897717d325b35,1551426199925,646,-7425.0,-6913.0,6399.0,0.0,0.0,0.0,0.0,0.0,0.0,0
76f897717d325b35,1551426199985,647,-7169.0,-6913.0,6399.0,0.0,0.0,0.0,0.0,0.0,0.0,0
76f897717d325b35,1551426200045,648,-7425.0,-6913.0,6399.0,0.0,0.0,0.0,0.0,0.0,0.0,0
76f897717d325b35,1551426200135,649,-7169.0,-6913.0,6399.0,0.0,0.0,0.0,0.0,0.0,0.0,0
76f897717d325b35,1551426200195,650,-7425.0,-6913.0,6399.0,0.0,0.0,0.0,0.0,0.0,0.0,0
76f897717d325b35,1551426200255,651,-7169.0,-6913.0,6399.0,0.0,0.0,0.0,0.0,0.0,0.0,0
76f897717d325b35,1551426200315,652,-7425.0,-6913.0,6399.0,0.0,0.0,0.0,0.0,0.0,0.0,0
76f897717d325b35,1551426200375,653,-7169.0,-6913.0,6399.0,0.0,0.0,0.0,0.0,0.0,0.0,0
76f897717d325b35,1551426200465,654,-7425.0,-6913.0,6399.0,0.0,0.0,0.0,0.0,0.0,0.0,0
76f897717d325b35,1551426200525,655,-7425.0,-6913.0,6399.0,0.0,0.0,0.0,0.0,0.0,0.0,0
76f897717d325b35,1551426200585,656,-7425.0,-6913.0,6399.0,0.0,0.0,0.0,0.0,0.0,0.0,0
76f897717d325b35,1551426200644,657,-7425.0,-6913.0,6399.0,0.0,0.0,0.0,0.0,0.0,0.0,0
76f897717d325b35,1551426200704,658,-7169.0,-6913.0,6399.0,0.0,0.0,0.0,0.0,0.0,0.0,0
76f897717d325b35,1551426200825,659,-7425.0,-6913.0,6399.0,0.0,0.0,0.0,0.0,0.0,0.0,0
76f897717d325b35,1551426200855,660,-7169.0,-6913.0,6399.0,0.0,0.0,0.0,0.0,0.0,0.0,0
76f897717d325b35,1551426200915,661,-7425.0,-6913.0,6399.0,0.0,0.0,0.0,0.0,0.0,0.0,0
76f897717d325b35,1551426200974,662,-7425.0,-6913.0,6399.0,0.0,0.0,0.0,0.0,0.0,0.0,0
76f897717d325b35,1551426201035,663,-7425.0,-6913.0,6399.0,0.0,0.0,0.0,0.0,0.0,0.0,0
76f897717d325b35,1551426201125,664,-7169.0,-6913.0,6399.0,0.0,0.0,0.0,0.0,0.0,0.0,0
76f897717d325b35,1551426201185,665,-7169.0,-6913.0,6399.0,0.0,0.0,0.0,0.0,0.0,0.0,0
76f897717d325b35,1551426201274,666,-7169.0,-6913.0,6399.0,0.0,0.0,0.0,0.0,0.0,0.0,0
76f897717d325b35,1551426201304,667,-7169.0,-6913.0,6399.0,0.0,0.0,0.0,0.0,0.0,0.0,0
76f897717d325b35,1551426201365,668,-7169.0,-6913.0,6399.0,0.0,0.0,0.0,0.0,0.0,0.0,0
76f897717d325b35,1551426201455,669,-7169.0,-6913.0,6399.0,0.0,0.0,0.0,0.0,0.0,0.0,0
76f897717d325b35,1551426201515,670,-7425.0,-6913.0,6399.0,0.0,0.0,0.0,0.0,0.0,0.0,0
76f897717d325b35,1551426201574,671,-7169.0,-6913.0,6399.0,0.0,0.0,0.0,0.0,0.0,0.0,0
76f897717d325b35,1551426201635,672,-7169.0,-6913.0,6399.0,0.0,0.0,0.0,0.0,0.0,0.0,0
76f897717d325b35,1551426201695,673,-7425.0,-6913.0,6399.0,0.0,0.0,0.0,0.0,0.0,0.0,0
76f897717d325b35,1551426201785,674,-7425.0,-6913.0,6399.0,0.0,0.0,0.0,0.0,0.0,0.0,0
76f897717d325b35,1551426201845,675,-7169.0,-6913.0,6143.0,0.0,0.0,0.0,0.0,0.0,0.0,0
76f897717d325b35,1551426201904,676,-7169.0,-6913.0,6143.0,0.0,0.0,0.0,0.0,0.0,0.0,0
76f897717d325b35,1551426201994,677,-7169.0,-6913.0,6399.0,0.0,0.0,0.0,0.0,0.0,0.0,0
76f897717d325b35,1551426202055,678,-7169.0,-6913.0,6399.0,0.0,0.0,0.0,0.0,0.0,0.0,0
76f897717d325b35,1551426202115,679,-7169.0,-6913.0,6399.0,0.0,0.0,0.0,0.0,0.0,0.0,0
76f897717d325b35,1551426202174,680,-7169.0,-6913.0,6399.0,0.0,0.0,0.0,0.0,0.0,0.0,0
76f897717d325b35,1551426202235,681,-7169.0,-6913.0,6399.0,0.0,0.0,0.0,0.0,0.0,0.0,0
76f897717d325b35,1551426202295,682,-7169.0,-6913.0,6143.0,0.0,0.0,0.0,0.0,0.0,0.0,0
76f897717d325b35,1551426202384,683,-7169.0,-6913.0,6399.0,0.0,0.0,0.0,0.0,0.0,0.0,0
76f897717d325b35,1551426202445,684,-7169.0,-6913.0,6399.0,0.0,0.0,0.0,0.0,0.0,0.0,0
76f897717d325b35,1551426202504,685,-7425.0,-6913.0,6399.0,0.0,0.0,0.0,0.0,0.0,0.0,0
76f897717d325b35,1551426202565,686,-7425.0,-6913.0,6399.0,0.0,0.0,0.0,0.0,0.0,0.0,0
76f897717d325b35,1551426202624,687,-7169.0,-6913.0,6399.0,0.0,0.0,0.0,0.0,0.0,0.0,0
76f897717d325b35,1551426202685,688,-7169.0,-6913.0,6399.0,0.0,0.0,0.0,0.0,0.0,0.0,0
76f897717d325b35,1551426202774,689,-7425.0,-6913.0,6399.0,0.0,0.0,0.0,0.0,0.0,0.0,0
76f897717d325b35,1551426202835,690,-7425.0,-6913.0,6143.0,0.0,0.0,0.0,0.0,0.0,0.0,0
76f897717d325b35,1551426202894,691,-7169.0,-6913.0,6143.0,0.0,0.0,0.0,0.0,0.0,0.0,0
76f897717d325b35,1551426202955,692,-7169.0,-6913.0,6399.0,0.0,0.0,0.0,0.0,0.0,0.0,0
76f897717d325b35,1551426203045,693,-7169.0,-6913.0,6399.0,0.0,0.0,0.0,0.0,0.0,0.0,0
76f897717d325b35,1551426203104,694,-7169.0,-6913.0,6399.0,0.0,0.0,0.0,0.0,0.0,0.0,0
76f897717d325b35,1551426203165,695,-7169.0,-6913.0,6399.0,0.0,0.0,0.0,0.0,0.0,0.0,0
76f897717d325b35,1551426203225,696,-7425.0,-6913.0,6399.0,0.0,0.0,0.0,0.0,0.0,0.0,0
76f897717d325b35,1551426203285,697,-7425.0,-6913.0,6399.0,0.0,0.0,0.0,0.0,0.0,0.0,0
76f897717d325b35,1551426203345,698,-7425.0,-6913.0,6399.0,0.0,0.0,0.0,0.0,0.0,0.0,0
76f897717d325b35,1551426203435,699,-7169.0,-6913.0,6143.0,0.0,0.0,0.0,0.0,0.0,0.0,0
76f897717d325b35,1551426203495,700,-7425.0,-6913.0,6399.0,0.0,0.0,0.0,0.0,0.0,0.0,0
76f897717d325b35,1551426203555,701,-7169.0,-6913.0,6143.0,0.0,0.0,0.0,0.0,0.0,0.0,0
76f897717d325b35,1551426203615,702,-7169.0,-6913.0,6143.0,0.0,0.0,0.0,0.0,0.0,0.0,0
76f897717d325b35,1551426203674,703,-7425.0,-6913.0,6399.0,0.0,0.0,0.0,0.0,0.0,0.0,0
76f897717d325b35,1551426203795,704,-7425.0,-6913.0,6143.0,0.0,0.0,0.0,0.0,0.0,0.0,0
76f897717d325b35,1551426203825,705,-7169.0,-6913.0,6399.0,0.0,0.0,0.0,0.0,0.0,0.0,0
76f897717d325b35,1551426203884,706,-7425.0,-6913.0,6399.0,0.0,0.0,0.0,0.0,0.0,0.0,0
76f897717d325b35,1551426203945,707,-7169.0,-6913.0,6399.0,0.0,0.0,0.0,0.0,0.0,0.0,0
76f897717d325b35,1551426204004,708,-7425.0,-6913.0,6399.0,0.0,0.0,0.0,0.0,0.0,0.0,0
76f897717d325b35,1551426204095,709,-7425.0,-6913.0,6399.0,0.0,0.0,0.0,0.0,0.0,0.0,0
76f897717d325b35,1551426204155,710,-7425.0,-6913.0,6399.0,0.0,0.0,0.0,0.0,0.0,0.0,0
76f897717d325b35,1551426204215,711,-7169.0,-6913.0,6399.0,0.0,0.0,0.0,0.0,0.0,0.0,0
76f897717d325b35,1551426204304,712,-7425.0,-6913.0,6399.0,0.0,0.0,0.0,0.0,0.0,0.0,0
76f897717d325b35,1551426204395,713,-7425.0,-6913.0,6399.0,0.0,0.0,0.0,0.0,0.0,0.0,0
76f897717d325b35,1551426204425,714,-7425.0,-6913.0,6399.0,0.0,0.0,0.0,0.0,0.0,0.0,0
76f897717d325b35,1551426204485,715,-7425.0,-6913.0,6399.0,0.0,0.0,0.0,0.0,0.0,0.0,0
76f897717d325b35,1551426204545,716,-7425.0,-6913.0,6399.0,0.0,0.0,0.0,0.0,0.0,0.0,0
76f897717d325b35,1551426204604,717,-7425.0,-6913.0,6399.0,0.0,0.0,0.0,0.0,0.0,0.0,0
76f897717d325b35,1551426204665,718,-7425.0,-6913.0,6399.0,0.0,0.0,0.0,0.0,0.0,0.0,0
76f897717d325b35,1551426204754,719,-7425.0,-6913.0,6399.0,0.0,0.0,0.0,0.0,0.0,0.0,0
76f897717d325b35,1551426204815,720,-7425.0,-6913.0,6399.0,0.0,0.0,0.0,0.0,0.0,0.0,0
76f897717d325b35,1551426204874,721,-7425.0,-6913.0,6399.0,0.0,0.0,0.0,0.0,0.0,0.0,0
76f897717d325b35,1551426204935,722,-7425.0,-6913.0,6399.0,0.0,0.0,0.0,0.0,0.0,0.0,0
76f897717d325b35,1551426204995,723,-7425.0,-6913.0,6399.0,0.0,0.0,0.0,0.0,0.0,0.0,0
76f897717d325b35,1551426205085,724,-7425.0,-6913.0,6399.0,0.0,0.0,0.0,0.0,0.0,0.0,0
76f897717d325b35,1551426205144,725,-7425.0,-6913.0,6399.0,0.0,0.0,0.0,0.0,0.0,0.0,0
76f897717d325b35,1551426205204,726,-7425.0,-6913.0,6399.0,0.0,0.0,0.0,0.0,0.0,0.0,0
76f897717d325b35,1551426205264,727,-7425.0,-6913.0,6399.0,0.0,0.0,0.0,0.0,0.0,0.0,0
76f897717d325b35,1551426205325,728,-7425.0,-6913.0,6399.0,0.0,0.0,0.0,0.0,0.0,0.0,0
76f897717d325b35,1551426205415,729,-7425.0,-6913.0,6399.0,0.0,0.0,0.0,0.0,0.0,0.0,0
76f897717d325b35,1551426205504,730,-7425.0,-6913.0,6399.0,0.0,0.0,0.0,0.0,0.0,0.0,0
76f897717d325b35,1551426205535,731,-7425.0,-6913.0,6399.0,0.0,0.0,0.0,0.0,0.0,0.0,0
76f897717d325b35,1551426205595,732,-7425.0,-6913.0,6399.0,0.0,0.0,0.0,0.0,0.0,0.0,0
76f897717d325b35,1551426205654,733,-7425.0,-6913.0,6399.0,0.0,0.0,0.0,0.0,0.0,0.0,0
76f897717d325b35,1551426205745,734,-7425.0,-6913.0,6399.0,0.0,0.0,0.0,0.0,0.0,0.0,0
76f897717d325b35,1551426205835,735,-7425.0,-6913.0,6399.0,0.0,0.0,0.0,0.0,0.0,0.0,0
76f897717d325b35,1551426205865,736,-7425.0,-6913.0,6399.0,0.0,0.0,0.0,0.0,0.0,0.0,0
76f897717d325b35,1551426205925,737,-7425.0,-6913.0,6399.0,0.0,0.0,0.0,0.0,0.0,0.0,0
76f897717d325b35,1551426206014,738,-7425.0,-6913.0,6399.0,0.0,0.0,0.0,0.0,0.0,0.0,0
76f897717d325b35,1551426206074,739,-7425.0,-6913.0,6399.0,0.0,0.0,0.0,0.0,0.0,0.0,0
76f897717d325b35,1551426206165,740,-7425.0,-6913.0,6399.0,0.0,0.0,0.0,0.0,0.0,0.0,0
76f897717d325b35,1551426206195,741,-7425.0,-6913.0,6399.0,0.0,0.0,0.0,0.0,0.0,0.0,0
76f897717d325b35,1551426206254,742,-7425.0,-6913.0,6143.0,0.0,0.0,0.0,0.0,0.0,0.0,0
76f897717d325b35,1551426206374,743,-7425.0,-6913.0,6399.0,0.0,0.0,0.0,0.0,0.0,0.0,0
76f897717d325b35,1551426206404,744,-7425.0,-6913.0,6399.0,0.0,0.0,0.0,0.0,0.0,0.0,0
76f897717d325b35,1551426206465,745,-7425.0,-6913.0,6143.0,0.0,0.0,0.0,0.0,0.0,0.0,0
76f897717d325b35,1551426206524,746,-7425.0,-6913.0,6399.0,0.0,0.0,0.0,0.0,0.0,0.0,0
76f897717d325b35,1551426206585,747,-7425.0,-6913.0,6399.0,0.0,0.0,0.0,0.0,0.0,0.0,0
76f897717d325b35,1551426206674,748,-7425.0,-6913.0,6399.0,0.0,0.0,0.0,0.0,0.0,0.0,0
76f897717d325b35,1551426206735,749,-7425.0,-6913.0,6399.0,0.0,0.0,0.0,0.0,0.0,0.0,0
76f897717d325b35,1551426206825,750,-7425.0,-6913.0,6399.0,0.0,0.0,0.0,0.0,0.0,0.0,0
76f897717d325b35,1551426206855,751,-7425.0,-6913.0,6399.0,0.0,0.0,0.0,0.0,0.0,0.0,0
76f897717d325b35,1551426206945,752,-7425.0,-6913.0,6399.0,0.0,0.0,0.0,0.0,0.0,0.0,0
76f897717d325b35,1551426206974,753,-7425.0,-6913.0,6399.0,0.0,0.0,0.0,0.0,0.0,0.0,0
76f897717d325b35,1551426207065,754,-7425.0,-6913.0,6399.0,0.0,0.0,0.0,0.0,0.0,0.0,0
76f897717d325b35,1551426207125,755,-7425.0,-6913.0,6399.0,0.0,0.0,0.0,0.0,0.0,0.0,0
76f897717d325b35,1551426207185,756,-7425.0,-6913.0,6399.0,0.0,0.0,0.0,0.0,0.0,0.0,0
76f897717d325b35,1551426207245,757,-7425.0,-6913.0,6399.0,0.0,0.0,0.0,0.0,0.0,0.0,0
76f897717d325b35,1551426207304,758,-7425.0,-6913.0,6399.0,0.0,0.0,0.0,0.0,0.0,0.0,0
76f897717d325b35,1551426207394,759,-7425.0,-6913.0,6399.0,0.0,0.0,0.0,0.0,0.0,0.0,0
76f897717d325b35,1551426207485,760,-7425.0,-6913.0,6399.0,0.0,0.0,0.0,0.0,0.0,0.0,0
76f897717d325b35,1551426207514,761,-7425.0,-6913.0,6399.0,0.0,0.0,0.0,0.0,0.0,0.0,0
76f897717d325b35,1551426207574,762,-7425.0,-6913.0,6399.0,0.0,0.0,0.0,0.0,0.0,0.0,0
76f897717d325b35,1551426207634,763,-7425.0,-6913.0,6399.0,0.0,0.0,0.0,0.0,0.0,0.0,0
76f897717d325b35,1551426207725,764,-7425.0,-6913.0,6399.0,0.0,0.0,0.0,0.0,0.0,0.0,0
76f897717d325b35,1551426207784,765,-7425.0,-6913.0,6399.0,0.0,0.0,0.0,0.0,0.0,0.0,0
76f897717d325b35,1551426207845,766,-7425.0,-6913.0,6399.0,0.0,0.0,0.0,0.0,0.0,0.0,0
76f897717d325b35,1551426207904,767,-7425.0,-6913.0,6399.0,0.0,0.0,0.0,0.0,0.0,0.0,0
76f897717d325b35,1551426207995,768,-7425.0,-6913.0,6399.0,0.0,0.0,0.0,0.0,0.0,0.0,0
76f897717d325b35,1551426208055,769,-7425.0,-6913.0,6399.0,0.0,0.0,0.0,0.0,0.0,0.0,0
76f897717d325b35,1551426208115,770,-7425.0,-6913.0,6399.0,0.0,0.0,0.0,0.0,0.0,0.0,0
76f897717d325b35,1551426208174,771,-7425.0,-6913.0,6399.0,0.0,0.0,0.0,0.0,0.0,0.0,0
76f897717d325b35,1551426208234,772,-7425.0,-6913.0,6399.0,0.0,0.0,0.0,0.0,0.0,0.0,0
76f897717d325b35,1551426208295,773,-7425.0,-6913.0,6399.0,0.0,0.0,0.0,0.0,0.0,0.0,0
76f897717d325b35,1551426208385,774,-7425.0,-6913.0,6399.0,0.0,0.0,0.0,0.0,0.0,0.0,0
76f897717d325b35,1551426208445,775,-7425.0,-6913.0,6399.0,0.0,0.0,0.0,0.0,0.0,0.0,0
76f897717d325b35,1551426208504,776,-7425.0,-6913.0,6399.0,0.0,0.0,0.0,0.0,0.0,0.0,0
76f897717d325b35,1551426208565,777,-7425.0,-6913.0,6399.0,0.0,0.0,0.0,0.0,0.0,0.0,0
76f897717d325b35,1551426208654,778,-7425.0,-6913.0,6399.0,0.0,0.0,0.0,0.0,0.0,0.0,0
76f897717d325b35,1551426208715,779,-7425.0,-6913.0,6399.0,0.0,0.0,0.0,0.0,0.0,0.0,0
76f897717d325b35,1551426208774,780,-7425.0,-6913.0,6399.0,0.0,0.0,0.0,0.0,0.0,0.0,0
76f897717d325b35,1551426208834,781,-7425.0,-6913.0,6399.0,0.0,0.0,0.0,0.0,0.0,0.0,0
76f897717d325b35,1551426208894,782,-7425.0,-6913.0,6399.0,0.0,0.0,0.0,0.0,0.0,0.0,0
76f897717d325b35,1551426208955,783,-7425.0,-6913.0,6399.0,0.0,0.0,0.0,0.0,0.0,0.0,0
76f897717d325b35,1551426209044,784,-7425.0,-6913.0,6399.0,0.0,0.0,0.0,0.0,0.0,0.0,0
76f897717d325b35,1551426209104,785,-7425.0,-6913.0,6399.0,0.0,0.0,0.0,0.0,0.0,0.0,0
76f897717d325b35,1551426209195,786,-7425.0,-6913.0,6399.0,0.0,0.0,0.0,0.0,0.0,0.0,0
76f897717d325b35,1551426209225,787,-7425.0,-6913.0,6399.0,0.0,0.0,0.0,0.0,0.0,0.0,0
76f897717d325b35,1551426209284,788,-7425.0,-6913.0,6399.0,0.0,0.0,0.0,0.0,0.0,0.0,0
76f897717d325b35,1551426209374,789,-7425.0,-6913.0,6399.0,0.0,0.0,0.0,0.0,0.0,0.0,0
76f897717d325b35,1551426209434,790,-7425.0,-6913.0,6399.0,0.0,0.0,0.0,0.0,0.0,0.0,0
76f897717d325b35,1551426209495,791,-7425.0,-6913.0,6399.0,0.0,0.0,0.0,0.0,0.0,0.0,0
76f897717d325b35,1551426209555,792,-7425.0,-6913.0,6399.0,0.0,0.0,0.0,0.0,0.0,0.0,0
76f897717d325b35,1551426209615,793,-7425.0,-6913.0,6399.0,0.0,0.0,0.0,0.0,0.0,0.0,0
76f897717d325b35,1551426209704,794,-7425.0,-6913.0,6399.0,0.0,0.0,0.0,0.0,0.0,0.0,0
76f897717d325b35,1551426209764,795,-7425.0,-6913.0,6399.0,0.0,0.0,0.0,0.0,0.0,0.0,0
76f897717d325b35,1551426209824,796,-7425.0,-6913.0,6399.0,0.0,0.0,0.0,0.0,0.0,0.0,0
76f897717d325b35,1551426209914,797,-7425.0,-6913.0,6399.0,0.0,0.0,0.0,0.0,0.0,0.0,0
76f897717d325b35,1551426209945,798,-7425.0,-6913.0,6399.0,0.0,0.0,0.0,0.0,0.0,0.0,0
76f897717d325b35,1551426210064,799,-7169.0,-6913.0,6399.0,0.0,0.0,0.0,0.0,0.0,0.0,0
76f897717d325b35,1551426210094,800,-7425.0,-6913.0,6399.0,0.0,0.0,0.0,0.0,0.0,0.0,0
76f897717d325b35,1551426210154,801,-7425.0,-6913.0,6399.0,0.0,0.0,0.0,0.0,0.0,0.0,0
76f897717d325b35,1551426210214,802,-7425.0,-6913.0,6399.0,0.0,0.0,0.0,0.0,0.0,0.0,0
76f897717d325b35,1551426210274,803,-7425.0,-6913.0,6399.0,0.0,0.0,0.0,0.0,0.0,0.0,0
76f897717d325b35,1551426210365,804,-7425.0,-6913.0,6399.0,0.0,0.0,0.0,0.0,0.0,0.0,0
76f897717d325b35,1551426210454,805,-7425.0,-6913.0,6399.0,0.0,0.0,0.0,0.0,0.0,0.0,0
76f897717d325b35,1551426210514,806,-7425.0,-6913.0,6399.0,0.0,0.0,0.0,0.0,0.0,0.0,0
76f897717d325b35,1551426210544,807,-7425.0,-6913.0,6399.0,0.0,0.0,0.0,0.0,0.0,0.0,0
76f897717d325b35,1551426210604,808,-7425.0,-6913.0,6399.0,0.0,0.0,0.0,0.0,0.0,0.0,0
76f897717d325b35,1551426210694,809,-7425.0,-6913.0,6399.0,0.0,0.0,0.0,0.0,0.0,0.0,0
76f897717d325b35,1551426210754,810,-7425.0,-6913.0,6399.0,0.0,0.0,0.0,0.0,0.0,0.0,0
76f897717d325b35,1551426210815,811,-7425.0,-6913.0,6399.0,0.0,0.0,0.0,0.0,0.0,0.0,0
76f897717d325b35,1551426210874,812,-7425.0,-6913.0,6399.0,0.0,0.0,0.0,0.0,0.0,0.0,0
76f897717d325b35,1551426210965,813,-7425.0,-6913.0,6399.0,0.0,0.0,0.0,0.0,0.0,0.0,0
76f897717d325b35,1551426211024,814,-7425.0,-6913.0,6399.0,0.0,0.0,0.0,0.0,0.0,0.0,0
76f897717d325b35,1551426211084,815,-7425.0,-6913.0,6399.0,0.0,0.0,0.0,0.0,0.0,0.0,0
76f897717d325b35,1551426211174,816,-7425.0,-6913.0,6399.0,0.0,0.0,0.0,0.0,0.0,0.0,0
76f897717d325b35,1551426211204,817,-7425.0,-6913.0,6399.0,0.0,0.0,0.0,0.0,0.0,0.0,0
76f897717d325b35,1551426211264,818,-7425.0,-6913.0,6399.0,0.0,0.0,0.0,0.0,0.0,0.0,0
76f897717d325b35,1551426211354,819,-7425.0,-6913.0,6399.0,0.0,0.0,0.0,0.0,0.0,0.0,0
76f897717d325b35,1551426211414,820,-7425.0,-6913.0,6399.0,0.0,0.0,0.0,0.0,0.0,0.0,0
76f897717d325b35,1551426211474,821,-7425.0,-6913.0,6399.0,0.0,0.0,0.0,0.0,0.0,0.0,0
76f897717d325b35,1551426211534,822,-7425.0,-6913.0,6399.0,0.0,0.0,0.0,0.0,0.0,0.0,0
76f897717d325b35,1551426211624,823,-7425.0,-6913.0,6399.0,0.0,0.0,0.0,0.0,0.0,0.0,0
76f897717d325b35,1551426211684,824,-7425.0,-6913.0,6399.0,0.0,0.0,0.0,0.0,0.0,0.0,0
76f897717d325b35,1551426211774,825,-7425.0,-6913.0,6399.0,0.0,0.0,0.0,0.0,0.0,0.0,0
76f897717d325b35,1551426211834,826,-7425.0,-6913.0,6399.0,0.0,0.0,0.0,0.0,0.0,0.0,0
76f897717d325b35,1551426211864,827,-7425.0,-6913.0,6399.0,0.0,0.0,0.0,0.0,0.0,0.0,0
76f897717d325b35,1551426211924,828,-7425.0,-6913.0,6399.0,0.0,0.0,0.0,0.0,0.0,0.0,0
76f897717d325b35,1551426212014,829,-7425.0,-6913.0,6399.0,0.0,0.0,0.0,0.0,0.0,0.0,0
76f897717d325b35,1551426212074,830,-7425.0,-6913.0,6399.0,0.0,0.0,0.0,0.0,0.0,0.0,0
76f897717d325b35,1551426212164,831,-7425.0,-6913.0,6399.0,0.0,0.0,0.0,0.0,0.0,0.0,0
76f897717d325b35,1551426212194,832,-7425.0,-6913.0,6399.0,0.0,0.0,0.0,0.0,0.0,0.0,0
76f897717d325b35,1551426212254,833,-7425.0,-6913.0,6399.0,0.0,0.0,0.0,0.0,0.0,0.0,0
76f897717d325b35,1551426212345,834,-7425.0,-6913.0,6399.0,0.0,0.0,0.0,0.0,0.0,0.0,0
76f897717d325b35,1551426212404,835,-7425.0,-6913.0,6399.0,0.0,0.0,0.0,0.0,0.0,0.0,0
76f897717d325b35,1551426212464,836,-7425.0,-6913.0,6399.0,0.0,0.0,0.0,0.0,0.0,0.0,0
76f897717d325b35,1551426212524,837,-7425.0,-6913.0,6399.0,0.0,0.0,0.0,0.0,0.0,0.0,0
76f897717d325b35,1551426212585,838,-7425.0,-6913.0,6399.0,0.0,0.0,0.0,0.0,0.0,0.0,0
76f897717d325b35,1551426212674,839,-7425.0,-6913.0,6399.0,0.0,0.0,0.0,0.0,0.0,0.0,0
76f897717d325b35,1551426212734,840,-7425.0,-6913.0,6399.0,0.0,0.0,0.0,0.0,0.0,0.0,0
76f897717d325b35,1551426212794,841,-7425.0,-6913.0,6399.0,0.0,0.0,0.0,0.0,0.0,0.0,0
76f897717d325b35,1551426212884,842,-7425.0,-6913.0,6399.0,0.0,0.0,0.0,0.0,0.0,0.0,0
76f897717d325b35,1551426212914,843,-7425.0,-6913.0,6399.0,0.0,0.0,0.0,0.0,0.0,0.0,0
76f897717d325b35,1551426213035,844,-7425.0,-6913.0,6399.0,0.0,0.0,0.0,0.0,0.0,0.0,0
76f897717d325b35,1551426213064,845,-7425.0,-6913.0,6399.0,0.0,0.0,0.0,0.0,0.0,0.0,0
76f897717d325b35,1551426213125,846,-7425.0,-6913.0,6399.0,0.0,0.0,0.0,0.0,0.0,0.0,0
76f897717d325b35,1551426213185,847,-7425.0,-6913.0,6399.0,0.0,0.0,0.0,0.0,0.0,0.0,0
76f897717d325b35,1551426213244,848,-7425.0,-6913.0,6399.0,0.0,0.0,0.0,0.0,0.0,0.0,0
76f897717d325b35,1551426213334,849,-7425.0,-6913.0,6399.0,0.0,0.0,0.0,0.0,0.0,0.0,0
76f897717d325b35,1551426213394,850,-7425.0,-6913.0,6399.0,0.0,0.0,0.0,0.0,0.0,0.0,0
76f897717d325b35,1551426213514,851,-7425.0,-6913.0,6399.0,0.0,0.0,0.0,0.0,0.0,0.0,0
76f897717d325b35,1551426213515,852,-7425.0,-6913.0,6399.0,0.0,0.0,0.0,0.0,0.0,0.0,0
76f897717d325b35,1551426213604,853,-7425.0,-6913.0,6399.0,0.0,0.0,0.0,0.0,0.0,0.0,0
76f897717d325b35,1551426213694,854,-7425.0,-6913.0,6399.0,0.0,0.0,0.0,0.0,0.0,0.0,0
76f897717d325b35,1551426213724,855,-7425.0,-6913.0,6399.0,0.0,0.0,0.0,0.0,0.0,0.0,0
76f897717d325b35,1551426213784,856,-7425.0,-6913.0,6399.0,0.0,0.0,0.0,0.0,0.0,0.0,0
76f897717d325b35,1551426213844,857,-7425.0,-6913.0,6399.0,0.0,0.0,0.0,0.0,0.0,0.0,0
76f897717d325b35,1551426213904,858,-7425.0,-6913.0,6399.0,0.0,0.0,0.0,0.0,0.0,0.0,0
76f897717d325b35,1551426213994,859,-7425.0,-6913.0,6399.0,0.0,0.0,0.0,0.0,0.0,0.0,0
76f897717d325b35,1551426214054,860,-7425.0,-6913.0,6399.0,0.0,0.0,0.0,0.0,0.0,0.0,0
76f897717d325b35,1551426214144,861,-7425.0,-6913.0,6399.0,0.0,0.0,0.0,0.0,0.0,0.0,0
76f897717d325b35,1551426214174,862,-7425.0,-6913.0,6399.0,0.0,0.0,0.0,0.0,0.0,0.0,0
76f897717d325b35,1551426214234,863,-7425.0,-6913.0,6399.0,0.0,0.0,0.0,0.0,0.0,0.0,0
76f897717d325b35,1551426214324,864,-7425.0,-6913.0,6399.0,0.0,0.0,0.0,0.0,0.0,0.0,0
76f897717d325b35,1551426214444,865,-7425.0,-6913.0,6399.0,0.0,0.0,0.0,0.0,0.0,0.0,0
76f897717d325b35,1551426214445,866,-7425.0,-6913.0,6399.0,0.0,0.0,0.0,0.0,0.0,0.0,0
76f897717d325b35,1551426214504,867,-7425.0,-6913.0,6399.0,0.0,0.0,0.0,0.0,0.0,0.0,0
76f897717d325b35,1551426214564,868,-7425.0,-6913.0,6399.0,0.0,0.0,0.0,0.0,0.0,0.0,0
76f897717d325b35,1551426214714,869,-7425.0,-6913.0,6399.0,0.0,0.0,0.0,0.0,0.0,0.0,0
76f897717d325b35,1551426214744,870,-7425.0,-6913.0,6399.0,0.0,0.0,0.0,0.0,0.0,0.0,0
76f897717d325b35,1551426214774,871,-7425.0,-6913.0,6399.0,0.0,0.0,0.0,0.0,0.0,0.0,0
76f897717d325b35,1551426214893,872,-7425.0,-6913.0,6399.0,0.0,0.0,0.0,0.0,0.0,0.0,0
76f897717d325b35,1551426214895,873,-7425.0,-6913.0,6399.0,0.0,0.0,0.0,0.0,0.0,0.0,0
76f897717d325b35,1551426214984,874,-7425.0,-6913.0,6399.0,0.0,0.0,0.0,0.0,0.0,0.0,0
76f897717d325b35,1551426215044,875,-7425.0,-6913.0,6399.0,0.0,0.0,0.0,0.0,0.0,0.0,0
76f897717d325b35,1551426215104,876,-7425.0,-6913.0,6399.0,0.0,0.0,0.0,0.0,0.0,0.0,0
76f897717d325b35,1551426215164,877,-7425.0,-6913.0,6399.0,0.0,0.0,0.0,0.0,0.0,0.0,0
76f897717d325b35,1551426215224,878,-7425.0,-6913.0,6399.0,0.0,0.0,0.0,0.0,0.0,0.0,0
76f897717d325b35,1551426215314,879,-7425.0,-6913.0,6399.0,0.0,0.0,0.0,0.0,0.0,0.0,0
76f897717d325b35,1551426215374,880,-7425.0,-6913.0,6399.0,0.0,0.0,0.0,0.0,0.0,0.0,0
76f897717d325b35,1551426215464,881,-7425.0,-6913.0,6399.0,0.0,0.0,0.0,0.0,0.0,0.0,0
76f897717d325b35,1551426215524,882,-7425.0,-6913.0,6399.0,0.0,0.0,0.0,0.0,0.0,0.0,0
76f897717d325b35,1551426215554,883,-7425.0,-6913.0,6399.0,0.0,0.0,0.0,0.0,0.0,0.0,0
76f897717d325b35,1551426215644,884,-7425.0,-6913.0,6399.0,0.0,0.0,0.0,0.0,0.0,0.0,0
76f897717d325b35,1551426215704,885,-7425.0,-6913.0,6399.0,0.0,0.0,0.0,0.0,0.0,0.0,0
76f897717d325b35,1551426215765,886,-7425.0,-6913.0,6399.0,0.0,0.0,0.0,0.0,0.0,0.0,0
76f897717d325b35,1551426215824,887,-7425.0,-6913.0,6399.0,0.0,0.0,0.0,0.0,0.0,0.0,0
76f897717d325b35,1551426215884,888,-7425.0,-6913.0,6399.0,0.0,0.0,0.0,0.0,0.0,0.0,0
76f897717d325b35,1551426215974,889,-7425.0,-6913.0,6399.0,0.0,0.0,0.0,0.0,0.0,0.0,0
76f897717d325b35,1551426216035,890,-7425.0,-6913.0,6399.0,0.0,0.0,0.0,0.0,0.0,0.0,0
76f897717d325b35,1551426216124,891,-7425.0,-6913.0,6399.0,0.0,0.0,0.0,0.0,0.0,0.0,0
76f897717d325b35,1551426216154,892,-7425.0,-6913.0,6399.0,0.0,0.0,0.0,0.0,0.0,0.0,0
76f897717d325b35,1551426216214,893,-7425.0,-6913.0,6399.0,0.0,0.0,0.0,0.0,0.0,0.0,0
76f897717d325b35,1551426216304,894,-7425.0,-6913.0,6399.0,0.0,0.0,0.0,0.0,0.0,0.0,0
76f897717d325b35,1551426216364,895,-7425.0,-6913.0,6399.0,0.0,0.0,0.0,0.0,0.0,0.0,0
76f897717d325b35,1551426216424,896,-7425.0,-6913.0,6399.0,0.0,0.0,0.0,0.0,0.0,0.0,0
76f897717d325b35,1551426216484,897,-7425.0,-6913.0,6399.0,0.0,0.0,0.0,0.0,0.0,0.0,0
76f897717d325b35,1551426216664,898,-7425.0,-6913.0,6399.0,0.0,0.0,0.0,0.0,0.0,0.0,0
76f897717d325b35,1551426216665,899,-7425.0,-6913.0,6399.0,0.0,0.0,0.0,0.0,0.0,0.0,0
76f897717d325b35,1551426216694,900,-7425.0,-6913.0,6399.0,0.0,0.0,0.0,0.0,0.0,0.0,0
76f897717d325b35,1551426216754,901,-7425.0,-6913.0,6399.0,0.0,0.0,0.0,0.0,0.0,0.0,0
76f897717d325b35,1551426216814,902,-7425.0,-6913.0,6399.0,0.0,0.0,0.0,0.0,0.0,0.0,0
76f897717d325b35,1551426216874,903,-7425.0,-6913.0,6399.0,0.0,0.0,0.0,0.0,0.0,0.0,0
76f897717d325b35,1551426216964,904,-7425.0,-6913.0,6399.0,0.0,0.0,0.0,0.0,0.0,0.0,0
76f897717d325b35,1551426217024,905,-7425.0,-6913.0,6399.0,0.0,0.0,0.0,0.0,0.0,0.0,0
76f897717d325b35,1551426217084,906,-7425.0,-6913.0,6399.0,0.0,0.0,0.0,0.0,0.0,0.0,0
76f897717d325b35,1551426217174,907,-7425.0,-6913.0,6399.0,0.0,0.0,0.0,0.0,0.0,0.0,0
76f897717d325b35,1551426217204,908,-7425.0,-6913.0,6399.0,0.0,0.0,0.0,0.0,0.0,0.0,0
76f897717d325b35,1551426217294,909,-7425.0,-6913.0,6399.0,0.0,0.0,0.0,0.0,0.0,0.0,0
76f897717d325b35,1551426217473,910,-7425.0,-6913.0,6399.0,0.0,0.0,0.0,0.0,0.0,0.0,0
76f897717d325b35,1551426217475,911,-7425.0,-6913.0,6399.0,0.0,0.0,0.0,0.0,0.0,0.0,0
76f897717d325b35,1551426217476,912,-7425.0,-6913.0,6399.0,0.0,0.0,0.0,0.0,0.0,0.0,0
76f897717d325b35,1551426217534,913,-7425.0,-6913.0,6399.0,0.0,0.0,0.0,0.0,0.0,0.0,0
76f897717d325b35,1551426217624,914,-7425.0,-6913.0,6399.0,0.0,0.0,0.0,0.0,0.0,0.0,0
76f897717d325b35,1551426217774,915,-7425.0,-6913.0,6399.0,0.0,0.0,0.0,0.0,0.0,0.0,0
76f897717d325b35,1551426217776,916,-7425.0,-6913.0,6399.0,0.0,0.0,0.0,0.0,0.0,0.0,0
76f897717d325b35,1551426217834,917,-7425.0,-6913.0,6399.0,0.0,0.0,0.0,0.0,0.0,0.0,0
76f897717d325b35,1551426217864,918,-7425.0,-6913.0,6399.0,0.0,0.0,0.0,0.0,0.0,0.0,0
76f897717d325b35,1551426217984,919,-7425.0,-6913.0,6399.0,0.0,0.0,0.0,0.0,0.0,0.0,0
76f897717d325b35,1551426218044,920,-7425.0,-6913.0,6399.0,0.0,0.0,0.0,0.0,0.0,0.0,0
76f897717d325b35,1551426218074,921,-7425.0,-6913.0,6399.0,0.0,0.0,0.0,0.0,0.0,0.0,0
76f897717d325b35,1551426218134,922,-7425.0,-6913.0,6399.0,0.0,0.0,0.0,0.0,0.0,0.0,0
76f897717d325b35,1551426218194,923,-7425.0,-6913.0,6399.0,0.0,0.0,0.0,0.0,0.0,0.0,0
76f897717d325b35,1551426218284,924,-7425.0,-6913.0,6399.0,0.0,0.0,0.0,0.0,0.0,0.0,0
76f897717d325b35,1551426218344,925,-7425.0,-6913.0,6399.0,0.0,0.0,0.0,0.0,0.0,0.0,0
76f897717d325b35,1551426218434,926,-7425.0,-6913.0,6399.0,0.0,0.0,0.0,0.0,0.0,0.0,0
76f897717d325b35,1551426218464,927,-7425.0,-6913.0,6399.0,0.0,0.0,0.0,0.0,0.0,0.0,0
76f897717d325b35,1551426218524,928,-7425.0,-6913.0,6399.0,0.0,0.0,0.0,0.0,0.0,0.0,0
76f897717d325b35,1551426218614,929,-7425.0,-6913.0,6399.0,0.0,0.0,0.0,0.0,0.0,0.0,0
76f897717d325b35,1551426218674,930,-7425.0,-6913.0,6399.0,0.0,0.0,0.0,0.0,0.0,0.0,0
76f897717d325b35,1551426218734,931,-7425.0,-6913.0,6399.0,0.0,0.0,0.0,0.0,0.0,0.0,0
76f897717d325b35,1551426218794,932,-7425.0,-6913.0,6399.0,0.0,0.0,0.0,0.0,0.0,0.0,0
76f897717d325b35,1551426218854,933,-7425.0,-6913.0,6399.0,0.0,0.0,0.0,0.0,0.0,0.0,0
76f897717d325b35,1551426218944,934,-7425.0,-6913.0,6399.0,0.0,0.0,0.0,0.0,0.0,0.0,0
76f897717d325b35,1551426219004,935,-7425.0,-6913.0,6399.0,0.0,0.0,0.0,0.0,0.0,0.0,0
76f897717d325b35,1551426219094,936,-7425.0,-6913.0,6399.0,0.0,0.0,0.0,0.0,0.0,0.0,0
76f897717d325b35,1551426219154,937,-7425.0,-6913.0,6399.0,0.0,0.0,0.0,0.0,0.0,0.0,0
76f897717d325b35,1551426219184,938,-7425.0,-6913.0,6399.0,0.0,0.0,0.0,0.0,0.0,0.0,0
76f897717d325b35,1551426219274,939,-7425.0,-6913.0,6399.0,0.0,0.0,0.0,0.0,0.0,0.0,0
76f897717d325b35,1551426219334,940,-7425.0,-6913.0,6399.0,0.0,0.0,0.0,0.0,0.0,0.0,0
76f897717d325b35,1551426219394,941,-7425.0,-6913.0,6399.0,0.0,0.0,0.0,0.0,0.0,0.0,0
76f897717d325b35,1551426219454,942,-7425.0,-6913.0,6399.0,0.0,0.0,0.0,0.0,0.0,0.0,0
76f897717d325b35,1551426219514,943,-7425.0,-6913.0,6399.0,0.0,0.0,0.0,0.0,0.0,0.0,0
76f897717d325b35,1551426219633,944,-7425.0,-6913.0,6399.0,0.0,0.0,0.0,0.0,0.0,0.0,0
76f897717d325b35,1551426219694,945,-7425.0,-6913.0,6399.0,0.0,0.0,0.0,0.0,0.0,0.0,0
76f897717d325b35,1551426219724,946,-7425.0,-6913.0,6399.0,0.0,0.0,0.0,0.0,0.0,0.0,0
76f897717d325b35,1551426219784,947,-7425.0,-6913.0,6399.0,0.0,0.0,0.0,0.0,0.0,0.0,0
76f897717d325b35,1551426219844,948,-7425.0,-6913.0,6399.0,0.0,0.0,0.0,0.0,0.0,0.0,0
76f897717d325b35,1551426219993,949,-7425.0,-6913.0,6399.0,0.0,0.0,0.0,0.0,0.0,0.0,0
76f897717d325b35,1551426219995,950,-7425.0,-6913.0,6399.0,0.0,0.0,0.0,0.0,0.0,0.0,0
76f897717d325b35,1551426220054,951,-7425.0,-6913.0,6399.0,0.0,0.0,0.0,0.0,0.0,0.0,0
76f897717d325b35,1551426220144,952,-7425.0,-6913.0,6399.0,0.0,0.0,0.0,0.0,0.0,0.0,0
76f897717d325b35,1551426220204,953,-7425.0,-6913.0,6399.0,0.0,0.0,0.0,0.0,0.0,0.0,0
76f897717d325b35,1551426220264,954,-7425.0,-6913.0,6399.0,0.0,0.0,0.0,0.0,0.0,0.0,0
76f897717d325b35,1551426220324,955,-7425.0,-6913.0,6399.0,0.0,0.0,0.0,0.0,0.0,0.0,0
76f897717d325b35,1551426220384,956,-7425.0,-6913.0,6399.0,0.0,0.0,0.0,0.0,0.0,0.0,0
76f897717d325b35,1551426220444,957,-7425.0,-6913.0,6399.0,0.0,0.0,0.0,0.0,0.0,0.0,0
76f897717d325b35,1551426220504,958,-7425.0,-6913.0,6399.0,0.0,0.0,0.0,0.0,0.0,0.0,0
76f897717d325b35,1551426220594,959,-7425.0,-6913.0,6399.0,0.0,0.0,0.0,0.0,0.0,0.0,0
76f897717d325b35,1551426220654,960,-7425.0,-6913.0,6399.0,0.0,0.0,0.0,0.0,0.0,0.0,0
76f897717d325b35,1551426220715,961,-7425.0,-6913.0,6399.0,0.0,0.0,0.0,0.0,0.0,0.0,0
76f897717d325b35,1551426220804,962,-7425.0,-6913.0,6399.0,0.0,0.0,0.0,0.0,0.0,0.0,0
76f897717d325b35,1551426220834,963,-7425.0,-6913.0,6399.0,0.0,0.0,0.0,0.0,0.0,0.0,0
76f897717d325b35,1551426220954,964,-7425.0,-6913.0,6399.0,0.0,0.0,0.0,0.0,0.0,0.0,0
76f897717d325b35,1551426220984,965,-7425.0,-6913.0,6399.0,0.0,0.0,0.0,0.0,0.0,0.0,0
76f897717d325b35,1551426221104,966,-7425.0,-6913.0,6399.0,0.0,0.0,0.0,0.0,0.0,0.0,0
76f897717d325b35,1551426221105,967,-7425.0,-6913.0,6399.0,0.0,0.0,0.0,0.0,0.0,0.0,0
76f897717d325b35,1551426221164,968,-7425.0,-6913.0,6399.0,0.0,0.0,0.0,0.0,0.0,0.0,0
76f897717d325b35,1551426221254,969,-7425.0,-6913.0,6399.0,0.0,0.0,0.0,0.0,0.0,0.0,0
76f897717d325b35,1551426221314,970,-7425.0,-6913.0,6399.0,0.0,0.0,0.0,0.0,0.0,0.0,0
76f897717d325b35,1551426221404,971,-7425.0,-6913.0,6399.0,0.0,0.0,0.0,0.0,0.0,0.0,0
76f897717d325b35,1551426221434,972,-7425.0,-6913.0,6399.0,0.0,0.0,0.0,0.0,0.0,0.0,0
76f897717d325b35,1551426221494,973,-7425.0,-6913.0,6399.0,0.0,0.0,0.0,0.0,0.0,0.0,0
76f897717d325b35,1551426221614,974,-7425.0,-6913.0,6399.0,0.0,0.0,0.0,0.0,0.0,0.0,0
76f897717d325b35,1551426221643,975,-7425.0,-6913.0,6399.0,0.0,0.0,0.0,0.0,0.0,0.0,0
76f897717d325b35,1551426221704,976,-7425.0,-6913.0,6399.0,0.0,0.0,0.0,0.0,0.0,0.0,0
76f897717d325b35,1551426221764,977,-7425.0,-6913.0,6399.0,0.0,0.0,0.0,0.0,0.0,0.0,0
76f897717d325b35,1551426221854,978,-7425.0,-6913.0,6399.0,0.0,0.0,0.0,0.0,0.0,0.0,0
76f897717d325b35,1551426221914,979,-7425.0,-6913.0,6399.0,0.0,0.0,0.0,0.0,0.0,0.0,0
76f897717d325b35,1551426221974,980,-7425.0,-6913.0,6399.0,0.0,0.0,0.0,0.0,0.0,0.0,0
76f897717d325b35,1551426222064,981,-7425.0,-6913.0,6399.0,0.0,0.0,0.0,0.0,0.0,0.0,0
76f897717d325b35,1551426222124,982,-7425.0,-6913.0,6399.0,0.0,0.0,0.0,0.0,0.0,0.0,0
76f897717d325b35,1551426222184,983,-7425.0,-6913.0,6399.0,0.0,0.0,0.0,0.0,0.0,0.0,0
76f897717d325b35,1551426222244,984,-7425.0,-6913.0,6399.0,0.0,0.0,0.0,0.0,0.0,0.0,0
76f897717d325b35,1551426222304,985,-7425.0,-6913.0,6399.0,0.0,0.0,0.0,0.0,0.0,0.0,0
76f897717d325b35,1551426222364,986,-7425.0,-6913.0,6399.0,0.0,0.0,0.0,0.0,0.0,0.0,0
76f897717d325b35,1551426222424,987,-7425.0,-6913.0,6399.0,0.0,0.0,0.0,0.0,0.0,0.0,0
76f897717d325b35,1551426222484,988,-7425.0,-6913.0,6399.0,0.0,0.0,0.0,0.0,0.0,0.0,0
76f897717d325b35,1551426222574,989,-7425.0,-6913.0,6399.0,0.0,0.0,0.0,0.0,0.0,0.0,0
76f897717d325b35,1551426222664,990,-7425.0,-6913.0,6399.0,0.0,0.0,0.0,0.0,0.0,0.0,0
76f897717d325b35,1551426222724,991,-7425.0,-6913.0,6399.0,0.0,0.0,0.0,0.0,0.0,0.0,0
76f897717d325b35,1551426222784,992,-7425.0,-6913.0,6399.0,0.0,0.0,0.0,0.0,0.0,0.0,0
76f897717d325b35,1551426222814,993,-7425.0,-6913.0,6399.0,0.0,0.0,0.0,0.0,0.0,0.0,0
76f897717d325b35,1551426222904,994,-7425.0,-6913.0,6399.0,0.0,0.0,0.0,0.0,0.0,0.0,0
76f897717d325b35,1551426222964,995,-7425.0,-6913.0,6399.0,0.0,0.0,0.0,0.0,0.0,0.0,0
76f897717d325b35,1551426223024,996,-7425.0,-6913.0,6399.0,0.0,0.0,0.0,0.0,0.0,0.0,0
76f897717d325b35,1551426223084,997,-7425.0,-6913.0,6399.0,0.0,0.0,0.0,0.0,0.0,0.0,0
76f897717d325b35,1551426223174,998,-7425.0,-6913.0,6399.0,0.0,0.0,0.0,0.0,0.0,0.0,0
76f897717d325b35,1551426223234,999,-7425.0,-6913.0,6399.0,0.0,0.0,0.0,0.0,0.0,0.0,0
76f897717d325b35,1551426223294,1000,-7425.0,-6913.0,6399.0,0.0,0.0,0.0,0.0,0.0,0.0,0
76f897717d325b35,1551426223354,1001,-7425.0,-6913.0,6399.0,0.0,0.0,0.0,0.0,0.0,0.0,0
76f897717d325b35,1551426223414,1002,-7425.0,-6913.0,6399.0,0.0,0.0,0.0,0.0,0.0,0.0,0
76f897717d325b35,1551426223474,1003,-7425.0,-6913.0,6399.0,0.0,0.0,0.0,0.0,0.0,0.0,0
76f897717d325b35,1551426223564,1004,-7425.0,-6913.0,6399.0,0.0,0.0,0.0,0.0,0.0,0.0,0
76f897717d325b35,1551426223624,1005,-7425.0,-6913.0,6399.0,0.0,0.0,0.0,0.0,0.0,0.0,0
76f897717d325b35,1551426223684,1006,-7425.0,-6913.0,6399.0,0.0,0.0,0.0,0.0,0.0,0.0,0
76f897717d325b35,1551426223744,1007,-7425.0,-6913.0,6399.0,0.0,0.0,0.0,0.0,0.0,0.0,0
76f897717d325b35,1551426223833,1008,-7425.0,-6913.0,6399.0,0.0,0.0,0.0,0.0,0.0,0.0,0
76f897717d325b35,1551426223894,1009,-7425.0,-6913.0,6399.0,0.0,0.0,0.0,0.0,0.0,0.0,0
76f897717d325b35,1551426223955,1010,-7425.0,-6913.0,6399.0,0.0,0.0,0.0,0.0,0.0,0.0,0
76f897717d325b35,1551426224073,1011,-7425.0,-6913.0,6399.0,0.0,0.0,0.0,0.0,0.0,0.0,0
76f897717d325b35,1551426224075,1012,-7425.0,-6913.0,6399.0,0.0,0.0,0.0,0.0,0.0,0.0,0
76f897717d325b35,1551426224134,1013,-7425.0,-6913.0,6399.0,0.0,0.0,0.0,0.0,0.0,0.0,0
76f897717d325b35,1551426224224,1014,-7425.0,-6913.0,6399.0,0.0,0.0,0.0,0.0,0.0,0.0,0
76f897717d325b35,1551426224284,1015,-7425.0,-6913.0,6399.0,0.0,0.0,0.0,0.0,0.0,0.0,0
76f897717d325b35,1551426224344,1016,-7425.0,-6913.0,6399.0,0.0,0.0,0.0,0.0,0.0,0.0,0
76f897717d325b35,1551426224434,1017,-7425.0,-6913.0,6399.0,0.0,0.0,0.0,0.0,0.0,0.0,0
76f897717d325b35,1551426224464,1018,-7425.0,-6913.0,6399.0,0.0,0.0,0.0,0.0,0.0,0.0,0
76f897717d325b35,1551426224584,1019,-7425.0,-6913.0,6399.0,0.0,0.0,0.0,0.0,0.0,0.0,0
76f897717d325b35,1551426224644,1020,-7425.0,-6913.0,6399.0,0.0,0.0,0.0,0.0,0.0,0.0,0
76f897717d325b35,1551426224704,1021,-7425.0,-6913.0,6399.0,0.0,0.0,0.0,0.0,0.0,0.0,0
76f897717d325b35,1551426224734,1022,-7425.0,-6913.0,6399.0,0.0,0.0,0.0,0.0,0.0,0.0,0
76f897717d325b35,1551426224794,1023,-7425.0,-6913.0,6399.0,0.0,0.0,0.0,0.0,0.0,0.0,0
76f897717d325b35,1551426224884,1024,-7425.0,-6913.0,6399.0,0.0,0.0,0.0,0.0,0.0,0.0,0
76f897717d325b35,1551426224944,1025,-7425.0,-6913.0,6399.0,0.0,0.0,0.0,0.0,0.0,0.0,0
76f897717d325b35,1551426225004,1026,-7425.0,-6913.0,6399.0,0.0,0.0,0.0,0.0,0.0,0.0,0
76f897717d325b35,1551426225094,1027,-7425.0,-6913.0,6399.0,0.0,0.0,0.0,0.0,0.0,0.0,0
76f897717d325b35,1551426225124,1028,-7425.0,-6913.0,6399.0,0.0,0.0,0.0,0.0,0.0,0.0,0
76f897717d325b35,1551426225214,1029,-7425.0,-6913.0,6399.0,0.0,0.0,0.0,0.0,0.0,0.0,0
76f897717d325b35,1551426225274,1030,-7425.0,-6913.0,6399.0,0.0,0.0,0.0,0.0,0.0,0.0,0
76f897717d325b35,1551426225334,1031,-7425.0,-6913.0,6399.0,0.0,0.0,0.0,0.0,0.0,0.0,0
76f897717d325b35,1551426225394,1032,-7425.0,-6913.0,6399.0,0.0,0.0,0.0,0.0,0.0,0.0,0
76f897717d325b35,1551426225454,1033,-7425.0,-6913.0,6399.0,0.0,0.0,0.0,0.0,0.0,0.0,0
76f897717d325b35,1551426225544,1034,-7425.0,-6913.0,6399.0,0.0,0.0,0.0,0.0,0.0,0.0,0
76f897717d325b35,1551426225604,1035,-7425.0,-6913.0,6399.0,0.0,0.0,0.0,0.0,0.0,0.0,0
76f897717d325b35,1551426225664,1036,-7425.0,-6913.0,6399.0,0.0,0.0,0.0,0.0,0.0,0.0,0
76f897717d325b35,1551426225724,1037,-7425.0,-6913.0,6655.0,0.0,0.0,0.0,0.0,0.0,0.0,0
76f897717d325b35,1551426225814,1038,-7169.0,-6913.0,6655.0,0.0,0.0,0.0,0.0,0.0,0.0,0
76f897717d325b35,1551426225874,1039,-7425.0,-7169.0,6911.0,0.0,0.0,0.0,0.0,0.0,0.0,0
76f897717d325b35,1551426225934,1040,-7681.0,-7425.0,6911.0,0.0,0.0,0.0,0.0,0.0,0.0,0
76f897717d325b35,1551426225994,1041,-7681.0,-7425.0,6911.0,0.0,0.0,0.0,0.0,0.0,0.0,0
76f897717d325b35,1551426226054,1042,-7937.0,-7425.0,7167.0,0.0,0.0,0.0,0.0,0.0,0.0,0
76f897717d325b35,1551426226144,1043,-7681.0,-7425.0,7167.0,0.0,0.0,0.0,0.0,0.0,0.0,0
76f897717d325b35,1551426226204,1044,-7681.0,-7681.0,7679.0,0.0,0.0,0.0,0.0,0.0,0.0,0
76f897717d325b35,1551426226294,1045,-7681.0,-7937.0,7935.0,0.0,0.0,0.0,0.0,0.0,0.0,0
76f897717d325b35,1551426226324,1046,-7681.0,-7681.0,7935.0,0.0,0.0,0.0,0.0,0.0,0.0,0
76f897717d325b35,1551426226384,1047,-7681.0,-7937.0,7935.0,0.0,0.0,0.0,0.0,0.0,0.0,0
76f897717d325b35,1551426226474,1048,-7425.0,-7937.0,7935.0,0.0,0.0,0.0,0.0,0.0,0.0,0
76f897717d325b35,1551426226534,1049,-7681.0,-8193.0,8447.0,0.0,0.0,0.0,0.0,0.0,0.0,0
76f897717d325b35,1551426226594,1050,-6913.0,-8193.0,8703.0,0.0,0.0,0.0,0.0,0.0,0.0,0
76f897717d325b35,1551426226654,1051,-6913.0,-8449.0,9471.0,0.0,0.0,0.0,0.0,0.0,0.0,0
76f897717d325b35,1551426226714,1052,-6401.0,-8449.0,9983.0,0.0,0.0,0.0,0.0,0.0,0.0,0
76f897717d325b35,1551426226804,1053,-6401.0,-8449.0,10495.0,0.0,0.0,0.0,0.0,0.0,0.0,0
76f897717d325b35,1551426226864,1054,-5633.0,-8193.0,11263.0,0.0,0.0,0.0,0.0,0.0,0.0,0
76f897717d325b35,1551426226924,1055,-4609.0,-8449.0,12287.0,0.0,0.0,0.0,0.0,0.0,0.0,0
76f897717d325b35,1551426226984,1056,-4865.0,-8193.0,12799.0,0.0,0.0,0.0,0.0,0.0,0.0,0
76f897717d325b35,1551426227044,1057,-5121.0,-7681.0,12799.0,0.0,0.0,0.0,0.0,0.0,0.0,0
76f897717d325b35,1551426227134,1058,-4865.0,-7425.0,12799.0,0.0,0.0,0.0,0.0,0.0,0.0,0
76f897717d325b35,1551426227194,1059,-5121.0,-7169.0,12543.0,0.0,0.0,0.0,0.0,0.0,0.0,0
76f897717d325b35,1551426227254,1060,-5121.0,-7169.0,12543.0,0.0,0.0,0.0,0.0,0.0,0.0,0
76f897717d325b35,1551426227314,1061,-5377.0,-7681.0,11775.0,0.0,0.0,0.0,0.0,0.0,0.0,0
76f897717d325b35,1551426227374,1062,-5633.0,-7937.0,11519.0,0.0,0.0,0.0,0.0,0.0,0.0,0
76f897717d325b35,1551426227464,1063,-5889.0,-7937.0,11263.0,0.0,0.0,0.0,0.0,0.0,0.0,0
76f897717d325b35,1551426227524,1064,-6401.0,-7937.0,9983.0,0.0,0.0,0.0,0.0,0.0,0.0,0
76f897717d325b35,1551426227584,1065,-6401.0,-7169.0,10495.0,0.0,0.0,0.0,0.0,0.0,0.0,0
76f897717d325b35,1551426227643,1066,-7425.0,-8193.0,11007.0,0.0,0.0,0.0,0.0,0.0,0.0,0
76f897717d325b35,1551426227703,1067,-6913.0,-8193.0,10495.0,0.0,0.0,0.0,0.0,0.0,0.0,0
76f897717d325b35,1551426227794,1068,-6401.0,-8193.0,9983.0,0.0,0.0,0.0,0.0,0.0,0.0,0
76f897717d325b35,1551426227854,1069,-6913.0,-8193.0,9983.0,0.0,0.0,0.0,0.0,0.0,0.0,0
76f897717d325b35,1551426227914,1070,-6913.0,-7937.0,9727.0,0.0,0.0,0.0,0.0,0.0,0.0,0
76f897717d325b35,1551426227973,1071,-6913.0,-8193.0,9471.0,0.0,0.0,0.0,0.0,0.0,0.0,0
76f897717d325b35,1551426228034,1072,-7425.0,-8449.0,9471.0,0.0,0.0,0.0,0.0,0.0,0.0,0
76f897717d325b35,1551426228124,1073,-7169.0,-8193.0,9215.0,0.0,0.0,0.0,0.0,0.0,0.0,0
76f897717d325b35,1551426228184,1074,-6913.0,-8193.0,9471.0,0.0,0.0,0.0,0.0,0.0,0.0,0
76f897717d325b35,1551426228244,1075,-6913.0,-8449.0,9471.0,0.0,0.0,0.0,0.0,0.0,0.0,0
76f897717d325b35,1551426228304,1076,-6657.0,-8449.0,9215.0,0.0,0.0,0.0,0.0,0.0,0.0,0
76f897717d325b35,1551426228364,1077,-6913.0,-8193.0,9215.0,0.0,0.0,0.0,0.0,0.0,0.0,0
76f897717d325b35,1551426228454,1078,-6913.0,-8449.0,9215.0,0.0,0.0,0.0,0.0,0.0,0.0,0
76f897717d325b35,1551426228514,1079,-7169.0,-8705.0,9215.0,0.0,0.0,0.0,0.0,0.0,0.0,0
76f897717d325b35,1551426228574,1080,-7169.0,-8449.0,9727.0,0.0,0.0,0.0,0.0,0.0,0.0,0
76f897717d325b35,1551426228633,1081,-7169.0,-7425.0,9471.0,0.0,0.0,0.0,0.0,0.0,0.0,0
76f897717d325b35,1551426228694,1082,-7169.0,-7937.0,9727.0,0.0,0.0,0.0,0.0,0.0,0.0,0
76f897717d325b35,1551426228784,1083,-8193.0,-8705.0,9727.0,0.0,0.0,0.0,0.0,0.0,0.0,0
76f897717d325b35,1551426228844,1084,-7681.0,-7937.0,9471.0,0.0,0.0,0.0,0.0,0.0,0.0,0
76f897717d325b35,1551426228903,1085,-7169.0,-8193.0,9471.0,0.0,0.0,0.0,0.0,0.0,0.0,0
76f897717d325b35,1551426228964,1086,-7937.0,-8193.0,9983.0,0.0,0.0,0.0,0.0,0.0,0.0,0
76f897717d325b35,1551426229024,1087,-7425.0,-7937.0,9215.0,0.0,0.0,0.0,0.0,0.0,0.0,0
76f897717d325b35,1551426229114,1088,-7425.0,-7681.0,9471.0,0.0,0.0,0.0,0.0,0.0,0.0,0
76f897717d325b35,1551426229174,1089,-7425.0,-8193.0,9727.0,0.0,0.0,0.0,0.0,0.0,0.0,0
76f897717d325b35,1551426229234,1090,-7169.0,-8449.0,9471.0,0.0,0.0,0.0,0.0,0.0,0.0,0
76f897717d325b35,1551426229294,1091,-7425.0,-8193.0,9471.0,0.0,0.0,0.0,0.0,0.0,0.0,0
76f897717d325b35,1551426229354,1092,-7425.0,-7937.0,9471.0,0.0,0.0,0.0,0.0,0.0,0.0,0
76f897717d325b35,1551426229444,1093,-7425.0,-8193.0,9471.0,0.0,0.0,0.0,0.0,0.0,0.0,0
76f897717d325b35,1551426229503,1094,-7425.0,-8193.0,9471.0,0.0,0.0,0.0,0.0,0.0,0.0,0
76f897717d325b35,1551426229564,1095,-7425.0,-8193.0,9471.0,0.0,0.0,0.0,0.0,0.0,0.0,0
76f897717d325b35,1551426229624,1096,-7425.0,-7937.0,9471.0,0.0,0.0,0.0,0.0,0.0,0.0,0
76f897717d325b35,1551426229684,1097,-7425.0,-7937.0,9471.0,0.0,0.0,0.0,0.0,0.0,0.0,0
76f897717d325b35,1551426229774,1098,-7425.0,-7937.0,9471.0,0.0,0.0,0.0,0.0,0.0,0.0,0
76f897717d325b35,1551426229834,1099,-7425.0,-8193.0,9471.0,0.0,0.0,0.0,0.0,0.0,0.0,0
76f897717d325b35,1551426229894,1100,-7425.0,-7937.0,9215.0,0.0,0.0,0.0,0.0,0.0,0.0,0
76f897717d325b35,1551426229954,1101,-7425.0,-8193.0,9471.0,0.0,0.0,0.0,0.0,0.0,0.0,0
76f897717d325b35,1551426230014,1102,-7425.0,-8193.0,9471.0,0.0,0.0,0.0,0.0,0.0,0.0,0
76f897717d325b35,1551426230103,1103,-7169.0,-8193.0,9471.0,0.0,0.0,0.0,0.0,0.0,0.0,0
76f897717d325b35,1551426230164,1104,-7425.0,-8193.0,9471.0,0.0,0.0,0.0,0.0,0.0,0.0,0
76f897717d325b35,1551426230224,1105,-7425.0,-8193.0,9471.0,0.0,0.0,0.0,0.0,0.0,0.0,0
76f897717d325b35,1551426230283,1106,-7425.0,-8193.0,9471.0,0.0,0.0,0.0,0.0,0.0,0.0,0
76f897717d325b35,1551426230344,1107,-7425.0,-8193.0,9471.0,0.0,0.0,0.0,0.0,0.0,0.0,0
76f897717d325b35,1551426230434,1108,-7425.0,-8193.0,9471.0,0.0,0.0,0.0,0.0,0.0,0.0,0
76f897717d325b35,1551426230494,1109,-7425.0,-7937.0,9471.0,0.0,0.0,0.0,0.0,0.0,0.0,0
76f897717d325b35,1551426230554,1110,-7425.0,-8193.0,9471.0,0.0,0.0,0.0,0.0,0.0,0.0,0
76f897717d325b35,1551426230614,1111,-7425.0,-7937.0,9471.0,0.0,0.0,0.0,0.0,0.0,0.0,0
76f897717d325b35,1551426230674,1112,-7425.0,-8193.0,9471.0,0.0,0.0,0.0,0.0,0.0,0.0,0
76f897717d325b35,1551426230764,1113,-7425.0,-8193.0,9471.0,0.0,0.0,0.0,0.0,0.0,0.0,0
76f897717d325b35,1551426230823,1114,-7425.0,-8193.0,9471.0,0.0,0.0,0.0,0.0,0.0,0.0,0
76f897717d325b35,1551426230884,1115,-7425.0,-7937.0,9471.0,0.0,0.0,0.0,0.0,0.0,0.0,0
76f897717d325b35,1551426230943,1116,-7425.0,-8193.0,9471.0,0.0,0.0,0.0,0.0,0.0,0.0,0
76f897717d325b35,1551426231003,1117,-7425.0,-7937.0,9471.0,0.0,0.0,0.0,0.0,0.0,0.0,0
76f897717d325b35,1551426231093,1118,-7425.0,-8193.0,9471.0,0.0,0.0,0.0,0.0,0.0,0.0,0
76f897717d325b35,1551426231154,1119,-7425.0,-7937.0,9471.0,0.0,0.0,0.0,0.0,0.0,0.0,0
76f897717d325b35,1551426231214,1120,-7425.0,-8193.0,9471.0,0.0,0.0,0.0,0.0,0.0,0.0,0
76f897717d325b35,1551426231274,1121,-7425.0,-8193.0,9471.0,0.0,0.0,0.0,0.0,0.0,0.0,0
76f897717d325b35,1551426231334,1122,-7425.0,-8193.0,9471.0,0.0,0.0,0.0,0.0,0.0,0.0,0
76f897717d325b35,1551426231424,1123,-7425.0,-7937.0,9471.0,0.0,0.0,0.0,0.0,0.0,0.0,0
76f897717d325b35,1551426231484,1124,-7425.0,-8193.0,9471.0,0.0,0.0,0.0,0.0,0.0,0.0,0
76f897717d325b35,1551426231544,1125,-7425.0,-8193.0,9471.0,0.0,0.0,0.0,0.0,0.0,0.0,0
76f897717d325b35,1551426231603,1126,-7425.0,-8193.0,9471.0,0.0,0.0,0.0,0.0,0.0,0.0,0
76f897717d325b35,1551426231664,1127,-7425.0,-8193.0,9471.0,0.0,0.0,0.0,0.0,0.0,0.0,0
76f897717d325b35,1551426231754,1128,-7425.0,-8193.0,9471.0,0.0,0.0,0.0,0.0,0.0,0.0,0
76f897717d325b35,1551426231814,1129,-7425.0,-8193.0,9471.0,0.0,0.0,0.0,0.0,0.0,0.0,0
76f897717d325b35,1551426231873,1130,-7425.0,-8193.0,9471.0,0.0,0.0,0.0,0.0,0.0,0.0,0
76f897717d325b35,1551426231934,1131,-7425.0,-8193.0,9471.0,0.0,0.0,0.0,0.0,0.0,0.0,0
76f897717d325b35,1551426231994,1132,-7425.0,-8193.0,9471.0,0.0,0.0,0.0,0.0,0.0,0.0,0
76f897717d325b35,1551426232084,1133,-7425.0,-8193.0,9471.0,0.0,0.0,0.0,0.0,0.0,0.0,0
76f897717d325b35,1551426232144,1134,-7425.0,-8193.0,9471.0,0.0,0.0,0.0,0.0,0.0,0.0,0
76f897717d325b35,1551426232204,1135,-7425.0,-8193.0,9471.0,0.0,0.0,0.0,0.0,0.0,0.0,0
76f897717d325b35,1551426232264,1136,-7425.0,-8193.0,9471.0,0.0,0.0,0.0,0.0,0.0,0.0,0
76f897717d325b35,1551426232324,1137,-7425.0,-7937.0,9471.0,0.0,0.0,0.0,0.0,0.0,0.0,0
76f897717d325b35,1551426232414,1138,-7425.0,-8193.0,9471.0,0.0,0.0,0.0,0.0,0.0,0.0,0
76f897717d325b35,1551426232474,1139,-7425.0,-8193.0,9471.0,0.0,0.0,0.0,0.0,0.0,0.0,0
76f897717d325b35,1551426232534,1140,-7425.0,-8193.0,9471.0,0.0,0.0,0.0,0.0,0.0,0.0,0
76f897717d325b35,1551426232594,1141,-7425.0,-8193.0,9471.0,0.0,0.0,0.0,0.0,0.0,0.0,0
76f897717d325b35,1551426232654,1142,-7425.0,-8193.0,9471.0,0.0,0.0,0.0,0.0,0.0,0.0,0
76f897717d325b35,1551426232744,1143,-7425.0,-8193.0,9471.0,0.0,0.0,0.0,0.0,0.0,0.0,0
76f897717d325b35,1551426232804,1144,-7425.0,-8193.0,9471.0,0.0,0.0,0.0,0.0,0.0,0.0,0
76f897717d325b35,1551426232864,1145,-7425.0,-8193.0,9471.0,0.0,0.0,0.0,0.0,0.0,0.0,0
76f897717d325b35,1551426232924,1146,-7425.0,-8193.0,9471.0,0.0,0.0,0.0,0.0,0.0,0.0,0
76f897717d325b35,1551426232984,1147,-7425.0,-8193.0,9471.0,0.0,0.0,0.0,0.0,0.0,0.0,0
76f897717d325b35,1551426233074,1148,-7425.0,-8193.0,9471.0,0.0,0.0,0.0,0.0,0.0,0.0,0
76f897717d325b35,1551426233134,1149,-7425.0,-8193.0,9471.0,0.0,0.0,0.0,0.0,0.0,0.0,0
76f897717d325b35,1551426233194,1150,-7425.0,-8193.0,9471.0,0.0,0.0,0.0,0.0,0.0,0.0,0
76f897717d325b35,1551426233254,1151,-7425.0,-7937.0,9471.0,0.0,0.0,0.0,0.0,0.0,0.0,0
76f897717d325b35,1551426233314,1152,-7425.0,-8193.0,9471.0,0.0,0.0,0.0,0.0,0.0,0.0,0
76f897717d325b35,1551426233404,1153,-7425.0,-8193.0,9471.0,0.0,0.0,0.0,0.0,0.0,0.0,0
76f897717d325b35,1551426233464,1154,-7425.0,-8193.0,9471.0,0.0,0.0,0.0,0.0,0.0,0.0,0
76f897717d325b35,1551426233524,1155,-7425.0,-8193.0,9471.0,0.0,0.0,0.0,0.0,0.0,0.0,0
76f897717d325b35,1551426233584,1156,-7425.0,-8193.0,9471.0,0.0,0.0,0.0,0.0,0.0,0.0,0
76f897717d325b35,1551426233644,1157,-7425.0,-8193.0,9471.0,0.0,0.0,0.0,0.0,0.0,0.0,0
76f897717d325b35,1551426233735,1158,-7425.0,-8193.0,9471.0,0.0,0.0,0.0,0.0,0.0,0.0,0
76f897717d325b35,1551426233794,1159,-7425.0,-8193.0,9471.0,0.0,0.0,0.0,0.0,0.0,0.0,0
76f897717d325b35,1551426233854,1160,-7425.0,-8193.0,9471.0,0.0,0.0,0.0,0.0,0.0,0.0,0
76f897717d325b35,1551426233914,1161,-7425.0,-8193.0,9471.0,0.0,0.0,0.0,0.0,0.0,0.0,0
76f897717d325b35,1551426233974,1162,-7425.0,-8193.0,9471.0,0.0,0.0,0.0,0.0,0.0,0.0,0
76f897717d325b35,1551426234064,1163,-7425.0,-8193.0,9471.0,0.0,0.0,0.0,0.0,0.0,0.0,0
76f897717d325b35,1551426234124,1164,-7425.0,-8193.0,9471.0,0.0,0.0,0.0,0.0,0.0,0.0,0
76f897717d325b35,1551426234185,1165,-7425.0,-8193.0,9471.0,0.0,0.0,0.0,0.0,0.0,0.0,0
76f897717d325b35,1551426234245,1166,-7425.0,-8193.0,9471.0,0.0,0.0,0.0,0.0,0.0,0.0,0
76f897717d325b35,1551426234304,1167,-7425.0,-8193.0,9471.0,0.0,0.0,0.0,0.0,0.0,0.0,0
76f897717d325b35,1551426234395,1168,-7425.0,-8193.0,9471.0,0.0,0.0,0.0,0.0,0.0,0.0,0
76f897717d325b35,1551426234454,1169,-7425.0,-8193.0,9471.0,0.0,0.0,0.0,0.0,0.0,0.0,0
76f897717d325b35,1551426234515,1170,-7425.0,-8193.0,9471.0,0.0,0.0,0.0,0.0,0.0,0.0,0
76f897717d325b35,1551426234574,1171,-7425.0,-8193.0,9471.0,0.0,0.0,0.0,0.0,0.0,0.0,0
76f897717d325b35,1551426234634,1172,-7425.0,-8193.0,9471.0,0.0,0.0,0.0,0.0,0.0,0.0,0
76f897717d325b35,1551426234725,1173,-7425.0,-8193.0,9471.0,0.0,0.0,0.0,0.0,0.0,0.0,0
76f897717d325b35,1551426234785,1174,-7425.0,-8193.0,9471.0,0.0,0.0,0.0,0.0,0.0,0.0,0
76f897717d325b35,1551426234845,1175,-7425.0,-8193.0,9471.0,0.0,0.0,0.0,0.0,0.0,0.0,0
76f897717d325b35,1551426234905,1176,-7425.0,-8193.0,9471.0,0.0,0.0,0.0,0.0,0.0,0.0,0
76f897717d325b35,1551426234965,1177,-7425.0,-8193.0,9471.0,0.0,0.0,0.0,0.0,0.0,0.0,0
76f897717d325b35,1551426235055,1178,-7425.0,-8193.0,9471.0,0.0,0.0,0.0,0.0,0.0,0.0,0
76f897717d325b35,1551426235115,1179,-7425.0,-8193.0,9471.0,0.0,0.0,0.0,0.0,0.0,0.0,0
76f897717d325b35,1551426235174,1180,-7425.0,-8193.0,9471.0,0.0,0.0,0.0,0.0,0.0,0.0,0
76f897717d325b35,1551426235235,1181,-7425.0,-8193.0,9471.0,0.0,0.0,0.0,0.0,0.0,0.0,0
76f897717d325b35,1551426235295,1182,-7425.0,-8193.0,9471.0,0.0,0.0,0.0,0.0,0.0,0.0,0
76f897717d325b35,1551426235385,1183,-7425.0,-8193.0,9471.0,0.0,0.0,0.0,0.0,0.0,0.0,0
76f897717d325b35,1551426235444,1184,-7425.0,-8193.0,9471.0,0.0,0.0,0.0,0.0,0.0,0.0,0
76f897717d325b35,1551426235504,1185,-7425.0,-8193.0,9471.0,0.0,0.0,0.0,0.0,0.0,0.0,0
76f897717d325b35,1551426235565,1186,-7425.0,-8193.0,9471.0,0.0,0.0,0.0,0.0,0.0,0.0,0
76f897717d325b35,1551426235625,1187,-7425.0,-8193.0,9471.0,0.0,0.0,0.0,0.0,0.0,0.0,0
76f897717d325b35,1551426235715,1188,-7425.0,-8193.0,9471.0,0.0,0.0,0.0,0.0,0.0,0.0,0
76f897717d325b35,1551426235775,1189,-7425.0,-8193.0,9471.0,0.0,0.0,0.0,0.0,0.0,0.0,0
76f897717d325b35,1551426235835,1190,-7425.0,-8193.0,9471.0,0.0,0.0,0.0,0.0,0.0,0.0,0
76f897717d325b35,1551426235895,1191,-7425.0,-8193.0,9471.0,0.0,0.0,0.0,0.0,0.0,0.0,0
76f897717d325b35,1551426235955,1192,-7425.0,-8193.0,9471.0,0.0,0.0,0.0,0.0,0.0,0.0,0
76f897717d325b35,1551426236045,1193,-7425.0,-8193.0,9471.0,0.0,0.0,0.0,0.0,0.0,0.0,0
76f897717d325b35,1551426236104,1194,-7425.0,-8193.0,9471.0,0.0,0.0,0.0,0.0,0.0,0.0,0
76f897717d325b35,1551426236165,1195,-7425.0,-8193.0,9471.0,0.0,0.0,0.0,0.0,0.0,0.0,0
76f897717d325b35,1551426236225,1196,-7425.0,-8193.0,9471.0,0.0,0.0,0.0,0.0,0.0,0.0,0
76f897717d325b35,1551426236285,1197,-7425.0,-8193.0,9471.0,0.0,0.0,0.0,0.0,0.0,0.0,0
76f897717d325b35,1551426236375,1198,-7425.0,-8193.0,9471.0,0.0,0.0,0.0,0.0,0.0,0.0,0
76f897717d325b35,1551426236435,1199,-7425.0,-8193.0,9471.0,0.0,0.0,0.0,0.0,0.0,0.0,0
76f897717d325b35,1551426236495,1200,-7425.0,-8193.0,9471.0,0.0,0.0,0.0,0.0,0.0,0.0,0
76f897717d325b35,1551426236555,1201,-7425.0,-8193.0,9471.0,0.0,0.0,0.0,0.0,0.0,0.0,0
76f897717d325b35,1551426236615,1202,-7425.0,-8193.0,9471.0,0.0,0.0,0.0,0.0,0.0,0.0,0
76f897717d325b35,1551426236705,1203,-7425.0,-8193.0,9471.0,0.0,0.0,0.0,0.0,0.0,0.0,0
76f897717d325b35,1551426236765,1204,-7425.0,-8193.0,9471.0,0.0,0.0,0.0,0.0,0.0,0.0,0
76f897717d325b35,1551426236825,1205,-7425.0,-8193.0,9471.0,0.0,0.0,0.0,0.0,0.0,0.0,0
76f897717d325b35,1551426236885,1206,-7425.0,-8193.0,9471.0,0.0,0.0,0.0,0.0,0.0,0.0,0
76f897717d325b35,1551426236945,1207,-7425.0,-8193.0,9471.0,0.0,0.0,0.0,0.0,0.0,0.0,0
76f897717d325b35,1551426237035,1208,-7425.0,-8193.0,9471.0,0.0,0.0,0.0,0.0,0.0,0.0,0
76f897717d325b35,1551426237095,1209,-7425.0,-8193.0,9471.0,0.0,0.0,0.0,0.0,0.0,0.0,0
76f897717d325b35,1551426237155,1210,-7425.0,-8193.0,9471.0,0.0,0.0,0.0,0.0,0.0,0.0,0
76f897717d325b35,1551426237215,1211,-7425.0,-8193.0,9471.0,0.0,0.0,0.0,0.0,0.0,0.0,0
76f897717d325b35,1551426237275,1212,-7425.0,-8193.0,9471.0,0.0,0.0,0.0,0.0,0.0,0.0,0
76f897717d325b35,1551426237365,1213,-7425.0,-8193.0,9471.0,0.0,0.0,0.0,0.0,0.0,0.0,0
76f897717d325b35,1551426237425,1214,-7425.0,-8193.0,9471.0,0.0,0.0,0.0,0.0,0.0,0.0,0
76f897717d325b35,1551426237485,1215,-7425.0,-8193.0,9471.0,0.0,0.0,0.0,0.0,0.0,0.0,0
76f897717d325b35,1551426237545,1216,-7425.0,-8193.0,9471.0,0.0,0.0,0.0,0.0,0.0,0.0,0
76f897717d325b35,1551426237605,1217,-7425.0,-8193.0,9471.0,0.0,0.0,0.0,0.0,0.0,0.0,0
76f897717d325b35,1551426237695,1218,-7425.0,-8193.0,9471.0,0.0,0.0,0.0,0.0,0.0,0.0,0
76f897717d325b35,1551426237755,1219,-7425.0,-8193.0,9471.0,0.0,0.0,0.0,0.0,0.0,0.0,0
76f897717d325b35,1551426237815,1220,-7425.0,-8193.0,9471.0,0.0,0.0,0.0,0.0,0.0,0.0,0
76f897717d325b35,1551426237875,1221,-7425.0,-8193.0,9471.0,0.0,0.0,0.0,0.0,0.0,0.0,0
76f897717d325b35,1551426237936,1222,-7425.0,-8193.0,9471.0,0.0,0.0,0.0,0.0,0.0,0.0,0
76f897717d325b35,1551426238025,1223,-7425.0,-8193.0,9471.0,0.0,0.0,0.0,0.0,0.0,0.0,0
76f897717d325b35,1551426238085,1224,-7425.0,-8193.0,9471.0,0.0,0.0,0.0,0.0,0.0,0.0,0
76f897717d325b35,1551426238145,1225,-7425.0,-8193.0,9471.0,0.0,0.0,0.0,0.0,0.0,0.0,0
76f897717d325b35,1551426238205,1226,-7425.0,-8193.0,9471.0,0.0,0.0,0.0,0.0,0.0,0.0,0
76f897717d325b35,1551426238265,1227,-7425.0,-8193.0,9471.0,0.0,0.0,0.0,0.0,0.0,0.0,0
76f897717d325b35,1551426238355,1228,-7425.0,-8193.0,9471.0,0.0,0.0,0.0,0.0,0.0,0.0,0
76f897717d325b35,1551426238415,1229,-7425.0,-8193.0,9471.0,0.0,0.0,0.0,0.0,0.0,0.0,0
76f897717d325b35,1551426238475,1230,-7425.0,-8193.0,9471.0,0.0,0.0,0.0,0.0,0.0,0.0,0
76f897717d325b35,1551426238535,1231,-7425.0,-8193.0,9471.0,0.0,0.0,0.0,0.0,0.0,0.0,0
76f897717d325b35,1551426238595,1232,-7425.0,-8193.0,9471.0,0.0,0.0,0.0,0.0,0.0,0.0,0
76f897717d325b35,1551426238685,1233,-7425.0,-8193.0,9471.0,0.0,0.0,0.0,0.0,0.0,0.0,0
76f897717d325b35,1551426238746,1234,-7425.0,-8193.0,9471.0,0.0,0.0,0.0,0.0,0.0,0.0,0
76f897717d325b35,1551426238805,1235,-7425.0,-8193.0,9471.0,0.0,0.0,0.0,0.0,0.0,0.0,0
76f897717d325b35,1551426238865,1236,-7425.0,-8193.0,9471.0,0.0,0.0,0.0,0.0,0.0,0.0,0
76f897717d325b35,1551426238926,1237,-7425.0,-8193.0,9471.0,0.0,0.0,0.0,0.0,0.0,0.0,0
76f897717d325b35,1551426239016,1238,-7425.0,-8193.0,9471.0,0.0,0.0,0.0,0.0,0.0,0.0,0
76f897717d325b35,1551426239075,1239,-7425.0,-8193.0,9215.0,0.0,0.0,0.0,0.0,0.0,0.0,0
76f897717d325b35,1551426239136,1240,-7425.0,-8193.0,9215.0,0.0,0.0,0.0,0.0,0.0,0.0,0
76f897717d325b35,1551426239195,1241,-7425.0,-8193.0,9215.0,0.0,0.0,0.0,0.0,0.0,0.0,0
76f897717d325b35,1551426239255,1242,-7425.0,-8193.0,9471.0,0.0,0.0,0.0,0.0,0.0,0.0,0
76f897717d325b35,1551426239346,1243,-7425.0,-8193.0,9215.0,0.0,0.0,0.0,0.0,0.0,0.0,0
76f897717d325b35,1551426239405,1244,-7425.0,-8193.0,9471.0,0.0,0.0,0.0,0.0,0.0,0.0,0
76f897717d325b35,1551426239465,1245,-7425.0,-8193.0,9471.0,0.0,0.0,0.0,0.0,0.0,0.0,0
76f897717d325b35,1551426239526,1246,-7425.0,-8193.0,9215.0,0.0,0.0,0.0,0.0,0.0,0.0,0
76f897717d325b35,1551426239585,1247,-7425.0,-8193.0,9471.0,0.0,0.0,0.0,0.0,0.0,0.0,0
76f897717d325b35,1551426239675,1248,-7425.0,-8193.0,9215.0,0.0,0.0,0.0,0.0,0.0,0.0,0
76f897717d325b35,1551426239736,1249,-7425.0,-8193.0,9471.0,0.0,0.0,0.0,0.0,0.0,0.0,0
76f897717d325b35,1551426239796,1250,-7425.0,-8193.0,9471.0,0.0,0.0,0.0,0.0,0.0,0.0,0
76f897717d325b35,1551426239856,1251,-7425.0,-8193.0,9215.0,0.0,0.0,0.0,0.0,0.0,0.0,0
76f897717d325b35,1551426239916,1252,-7425.0,-8193.0,9471.0,0.0,0.0,0.0,0.0,0.0,0.0,0
76f897717d325b35,1551426240005,1253,-7425.0,-8193.0,9471.0,0.0,0.0,0.0,0.0,0.0,0.0,0
76f897717d325b35,1551426240066,1254,-7425.0,-8193.0,9471.0,0.0,0.0,0.0,0.0,0.0,0.0,0
76f897717d325b35,1551426240125,1255,-7425.0,-8193.0,9471.0,0.0,0.0,0.0,0.0,0.0,0.0,0
76f897717d325b35,1551426240126,1256,-7425.0,-8193.0,9471.0,0.0,0.0,0.0,0.0,0.0,0.0,0
76f897717d325b35,1551426240216,1257,-7425.0,-8193.0,9471.0,0.0,0.0,0.0,0.0,0.0,0.0,0
76f897717d325b35,1551426240246,1258,-7425.0,-8193.0,9471.0,0.0,0.0,0.0,0.0,0.0,0.0,0
76f897717d325b35,1551426240336,1259,-7425.0,-8193.0,9471.0,0.0,0.0,0.0,0.0,0.0,0.0,0
76f897717d325b35,1551426240396,1260,-7425.0,-8193.0,9471.0,0.0,0.0,0.0,0.0,0.0,0.0,0
76f897717d325b35,1551426240455,1261,-7425.0,-8193.0,9471.0,0.0,0.0,0.0,0.0,0.0,0.0,0
76f897717d325b35,1551426240516,1262,-7425.0,-8193.0,9471.0,0.0,0.0,0.0,0.0,0.0,0.0,0
76f897717d325b35,1551426240575,1263,-7425.0,-8193.0,9471.0,0.0,0.0,0.0,0.0,0.0,0.0,0
76f897717d325b35,1551426240666,1264,-7425.0,-8193.0,9471.0,0.0,0.0,0.0,0.0,0.0,0.0,0
76f897717d325b35,1551426240726,1265,-7425.0,-8193.0,9471.0,0.0,0.0,0.0,0.0,0.0,0.0,0
76f897717d325b35,1551426240786,1266,-7425.0,-8193.0,9471.0,0.0,0.0,0.0,0.0,0.0,0.0,0
76f897717d325b35,1551426240846,1267,-7425.0,-8193.0,9471.0,0.0,0.0,0.0,0.0,0.0,0.0,0
76f897717d325b35,1551426240906,1268,-7425.0,-8193.0,9471.0,0.0,0.0,0.0,0.0,0.0,0.0,0
76f897717d325b35,1551426240996,1269,-7425.0,-8193.0,9471.0,0.0,0.0,0.0,0.0,0.0,0.0,0
76f897717d325b35,1551426241056,1270,-7425.0,-8193.0,9471.0,0.0,0.0,0.0,0.0,0.0,0.0,0
76f897717d325b35,1551426241116,1271,-7425.0,-8193.0,9471.0,0.0,0.0,0.0,0.0,0.0,0.0,0
76f897717d325b35,1551426241175,1272,-7425.0,-8193.0,9471.0,0.0,0.0,0.0,0.0,0.0,0.0,0
76f897717d325b35,1551426241236,1273,-7425.0,-8193.0,9471.0,0.0,0.0,0.0,0.0,0.0,0.0,0
76f897717d325b35,1551426241326,1274,-7425.0,-8193.0,9471.0,0.0,0.0,0.0,0.0,0.0,0.0,0
76f897717d325b35,1551426241386,1275,-7425.0,-8193.0,9471.0,0.0,0.0,0.0,0.0,0.0,0.0,0
76f897717d325b35,1551426241446,1276,-7425.0,-8193.0,9471.0,0.0,0.0,0.0,0.0,0.0,0.0,0
76f897717d325b35,1551426241505,1277,-7425.0,-8193.0,9471.0,0.0,0.0,0.0,0.0,0.0,0.0,0
76f897717d325b35,1551426241566,1278,-7425.0,-8193.0,9471.0,0.0,0.0,0.0,0.0,0.0,0.0,0
76f897717d325b35,1551426241655,1279,-7425.0,-8193.0,9471.0,0.0,0.0,0.0,0.0,0.0,0.0,0
76f897717d325b35,1551426241716,1280,-7425.0,-8193.0,9471.0,0.0,0.0,0.0,0.0,0.0,0.0,0
76f897717d325b35,1551426241775,1281,-7425.0,-8193.0,9471.0,0.0,0.0,0.0,0.0,0.0,0.0,0
76f897717d325b35,1551426241836,1282,-7425.0,-8193.0,9471.0,0.0,0.0,0.0,0.0,0.0,0.0,0
76f897717d325b35,1551426241896,1283,-7425.0,-8193.0,9471.0,0.0,0.0,0.0,0.0,0.0,0.0,0
76f897717d325b35,1551426241986,1284,-7425.0,-8193.0,9471.0,0.0,0.0,0.0,0.0,0.0,0.0,0
76f897717d325b35,1551426242046,1285,-7425.0,-8193.0,9471.0,0.0,0.0,0.0,0.0,0.0,0.0,0
76f897717d325b35,1551426242105,1286,-7425.0,-8193.0,9215.0,0.0,0.0,0.0,0.0,0.0,0.0,0
76f897717d325b35,1551426242166,1287,-7425.0,-7937.0,9215.0,0.0,0.0,0.0,0.0,0.0,0.0,0
76f897717d325b35,1551426242226,1288,-7425.0,-8193.0,9215.0,0.0,0.0,0.0,0.0,0.0,0.0,0
76f897717d325b35,1551426242316,1289,-7425.0,-8193.0,9215.0,0.0,0.0,0.0,0.0,0.0,0.0,0
76f897717d325b35,1551426242376,1290,-7425.0,-8193.0,9215.0,0.0,0.0,0.0,0.0,0.0,0.0,0
76f897717d325b35,1551426242436,1291,-7425.0,-8193.0,9215.0,0.0,0.0,0.0,0.0,0.0,0.0,0
76f897717d325b35,1551426242496,1292,-7425.0,-8193.0,9215.0,0.0,0.0,0.0,0.0,0.0,0.0,0
76f897717d325b35,1551426242556,1293,-7425.0,-8193.0,9215.0,0.0,0.0,0.0,0.0,0.0,0.0,0
76f897717d325b35,1551426242645,1294,-7425.0,-8193.0,9471.0,0.0,0.0,0.0,0.0,0.0,0.0,0
76f897717d325b35,1551426242706,1295,-7425.0,-8193.0,9215.0,0.0,0.0,0.0,0.0,0.0,0.0,0
76f897717d325b35,1551426242766,1296,-7425.0,-8193.0,9215.0,0.0,0.0,0.0,0.0,0.0,0.0,0
76f897717d325b35,1551426242826,1297,-7425.0,-8193.0,9471.0,0.0,0.0,0.0,0.0,0.0,0.0,0
76f897717d325b35,1551426242886,1298,-7425.0,-8193.0,9471.0,0.0,0.0,0.0,0.0,0.0,0.0,0
76f897717d325b35,1551426242976,1299,-7425.0,-8193.0,9471.0,0.0,0.0,0.0,0.0,0.0,0.0,0
76f897717d325b35,1551426243036,1300,-7425.0,-8193.0,9471.0,0.0,0.0,0.0,0.0,0.0,0.0,0
76f897717d325b35,1551426243096,1301,-7425.0,-8193.0,9471.0,0.0,0.0,0.0,0.0,0.0,0.0,0
76f897717d325b35,1551426243156,1302,-7425.0,-8193.0,9471.0,0.0,0.0,0.0,0.0,0.0,0.0,0
76f897717d325b35,1551426243216,1303,-7425.0,-8193.0,9471.0,0.0,0.0,0.0,0.0,0.0,0.0,0
76f897717d325b35,1551426243306,1304,-7425.0,-8193.0,9471.0,0.0,0.0,0.0,0.0,0.0,0.0,0
76f897717d325b35,1551426243366,1305,-7425.0,-8193.0,9471.0,0.0,0.0,0.0,0.0,0.0,0.0,0
76f897717d325b35,1551426243426,1306,-7425.0,-8193.0,9471.0,0.0,0.0,0.0,0.0,0.0,0.0,0
76f897717d325b35,1551426243486,1307,-7425.0,-8193.0,9471.0,0.0,0.0,0.0,0.0,0.0,0.0,0
76f897717d325b35,1551426243546,1308,-7425.0,-8193.0,9471.0,0.0,0.0,0.0,0.0,0.0,0.0,0
76f897717d325b35,1551426243635,1309,-7425.0,-8193.0,9471.0,0.0,0.0,0.0,0.0,0.0,0.0,0
76f897717d325b35,1551426243696,1310,-7425.0,-8193.0,9471.0,0.0,0.0,0.0,0.0,0.0,0.0,0
76f897717d325b35,1551426243756,1311,-7425.0,-8193.0,9471.0,0.0,0.0,0.0,0.0,0.0,0.0,0
76f897717d325b35,1551426243816,1312,-7425.0,-8193.0,9471.0,0.0,0.0,0.0,0.0,0.0,0.0,0
76f897717d325b35,1551426243876,1313,-7425.0,-8193.0,9471.0,0.0,0.0,0.0,0.0,0.0,0.0,0
76f897717d325b35,1551426243966,1314,-7425.0,-8193.0,9471.0,0.0,0.0,0.0,0.0,0.0,0.0,0
76f897717d325b35,1551426244026,1315,-7425.0,-8193.0,9471.0,0.0,0.0,0.0,0.0,0.0,0.0,0
76f897717d325b35,1551426244086,1316,-7425.0,-8193.0,9471.0,0.0,0.0,0.0,0.0,0.0,0.0,0
76f897717d325b35,1551426244146,1317,-7425.0,-8193.0,9471.0,0.0,0.0,0.0,0.0,0.0,0.0,0
76f897717d325b35,1551426244206,1318,-7425.0,-8193.0,9471.0,0.0,0.0,0.0,0.0,0.0,0.0,0
76f897717d325b35,1551426244296,1319,-7425.0,-8193.0,9471.0,0.0,0.0,0.0,0.0,0.0,0.0,0
76f897717d325b35,1551426244356,1320,-7425.0,-8193.0,9471.0,0.0,0.0,0.0,0.0,0.0,0.0,0
76f897717d325b35,1551426244416,1321,-7425.0,-8193.0,9471.0,0.0,0.0,0.0,0.0,0.0,0.0,0
76f897717d325b35,1551426244476,1322,-7425.0,-8193.0,9471.0,0.0,0.0,0.0,0.0,0.0,0.0,0
76f897717d325b35,1551426244536,1323,-7425.0,-8193.0,9471.0,0.0,0.0,0.0,0.0,0.0,0.0,0
76f897717d325b35,1551426244626,1324,-7425.0,-8193.0,9471.0,0.0,0.0,0.0,0.0,0.0,0.0,0
76f897717d325b35,1551426244686,1325,-7425.0,-8193.0,9471.0,0.0,0.0,0.0,0.0,0.0,0.0,0
76f897717d325b35,1551426244746,1326,-7425.0,-8193.0,9471.0,0.0,0.0,0.0,0.0,0.0,0.0,0
76f897717d325b35,1551426244806,1327,-7425.0,-8193.0,9471.0,0.0,0.0,0.0,0.0,0.0,0.0,0
76f897717d325b35,1551426244866,1328,-7425.0,-8193.0,9471.0,0.0,0.0,0.0,0.0,0.0,0.0,0
76f897717d325b35,1551426244956,1329,-7425.0,-8193.0,9471.0,0.0,0.0,0.0,0.0,0.0,0.0,0
76f897717d325b35,1551426245016,1330,-7425.0,-8193.0,9471.0,0.0,0.0,0.0,0.0,0.0,0.0,0
76f897717d325b35,1551426245076,1331,-7425.0,-8193.0,9215.0,0.0,0.0,0.0,0.0,0.0,0.0,0
76f897717d325b35,1551426245136,1332,-7425.0,-8193.0,9215.0,0.0,0.0,0.0,0.0,0.0,0.0,0
76f897717d325b35,1551426245196,1333,-7425.0,-8193.0,9471.0,0.0,0.0,0.0,0.0,0.0,0.0,0
76f897717d325b35,1551426245286,1334,-7425.0,-8193.0,9471.0,0.0,0.0,0.0,0.0,0.0,0.0,0
76f897717d325b35,1551426245375,1335,-7425.0,-8193.0,9471.0,0.0,0.0,0.0,0.0,0.0,0.0,0
76f897717d325b35,1551426245405,1336,-7425.0,-8193.0,9471.0,0.0,0.0,0.0,0.0,0.0,0.0,0
76f897717d325b35,1551426245465,1337,-7425.0,-8193.0,9471.0,0.0,0.0,0.0,0.0,0.0,0.0,0
76f897717d325b35,1551426245526,1338,-7425.0,-8193.0,9471.0,0.0,0.0,0.0,0.0,0.0,0.0,0
76f897717d325b35,1551426245616,1339,-7425.0,-8193.0,9471.0,0.0,0.0,0.0,0.0,0.0,0.0,0
76f897717d325b35,1551426245675,1340,-7425.0,-8193.0,9215.0,0.0,0.0,0.0,0.0,0.0,0.0,0
76f897717d325b35,1551426245736,1341,-7425.0,-8193.0,9215.0,0.0,0.0,0.0,0.0,0.0,0.0,0
76f897717d325b35,1551426245796,1342,-7425.0,-8193.0,9471.0,0.0,0.0,0.0,0.0,0.0,0.0,0
76f897717d325b35,1551426245855,1343,-7425.0,-8193.0,9215.0,0.0,0.0,0.0,0.0,0.0,0.0,0
76f897717d325b35,1551426245946,1344,-7425.0,-8193.0,9471.0,0.0,0.0,0.0,0.0,0.0,0.0,0
76f897717d325b35,1551426246005,1345,-7425.0,-8193.0,9471.0,0.0,0.0,0.0,0.0,0.0,0.0,0
76f897717d325b35,1551426246066,1346,-7425.0,-8193.0,9471.0,0.0,0.0,0.0,0.0,0.0,0.0,0
76f897717d325b35,1551426246127,1347,-7425.0,-8193.0,9471.0,0.0,0.0,0.0,0.0,0.0,0.0,0
76f897717d325b35,1551426246187,1348,-7425.0,-8193.0,9471.0,0.0,0.0,0.0,0.0,0.0,0.0,0
76f897717d325b35,1551426246276,1349,-7425.0,-8193.0,9471.0,0.0,0.0,0.0,0.0,0.0,0.0,0
76f897717d325b35,1551426246337,1350,-7425.0,-8193.0,9471.0,0.0,0.0,0.0,0.0,0.0,0.0,0
76f897717d325b35,1551426246396,1351,-7425.0,-8193.0,9471.0,0.0,0.0,0.0,0.0,0.0,0.0,0
76f897717d325b35,1551426246397,1352,-7425.0,-8193.0,9471.0,0.0,0.0,0.0,0.0,0.0,0.0,0
76f897717d325b35,1551426246456,1353,-7425.0,-8193.0,9471.0,0.0,0.0,0.0,0.0,0.0,0.0,0
76f897717d325b35,1551426246516,1354,-7425.0,-8193.0,9471.0,0.0,0.0,0.0,0.0,0.0,0.0,0
76f897717d325b35,1551426246606,1355,-7425.0,-8193.0,9471.0,0.0,0.0,0.0,0.0,0.0,0.0,0
76f897717d325b35,1551426246666,1356,-7425.0,-8193.0,9471.0,0.0,0.0,0.0,0.0,0.0,0.0,0
76f897717d325b35,1551426246726,1357,-7425.0,-8193.0,9471.0,0.0,0.0,0.0,0.0,0.0,0.0,0
76f897717d325b35,1551426246787,1358,-7425.0,-8193.0,9215.0,0.0,0.0,0.0,0.0,0.0,0.0,0
76f897717d325b35,1551426246846,1359,-7425.0,-8193.0,9471.0,0.0,0.0,0.0,0.0,0.0,0.0,0
76f897717d325b35,1551426246937,1360,-7425.0,-8193.0,9215.0,0.0,0.0,0.0,0.0,0.0,0.0,0
76f897717d325b35,1551426246997,1361,-7425.0,-8193.0,9471.0,0.0,0.0,0.0,0.0,0.0,0.0,0
76f897717d325b35,1551426247057,1362,-7425.0,-8193.0,9215.0,0.0,0.0,0.0,0.0,0.0,0.0,0
76f897717d325b35,1551426247117,1363,-7425.0,-8193.0,9471.0,0.0,0.0,0.0,0.0,0.0,0.0,0
76f897717d325b35,1551426247176,1364,-7425.0,-8193.0,9471.0,0.0,0.0,0.0,0.0,0.0,0.0,0
76f897717d325b35,1551426247267,1365,-7425.0,-8193.0,9471.0,0.0,0.0,0.0,0.0,0.0,0.0,0
76f897717d325b35,1551426247327,1366,-7425.0,-8193.0,9471.0,0.0,0.0,0.0,0.0,0.0,0.0,0
76f897717d325b35,1551426247387,1367,-7425.0,-8193.0,9471.0,0.0,0.0,0.0,0.0,0.0,0.0,0
76f897717d325b35,1551426247447,1368,-7425.0,-8193.0,9471.0,0.0,0.0,0.0,0.0,0.0,0.0,0
76f897717d325b35,1551426247506,1369,-7425.0,-8193.0,9471.0,0.0,0.0,0.0,0.0,0.0,0.0,0
76f897717d325b35,1551426247596,1370,-7425.0,-8193.0,9215.0,0.0,0.0,0.0,0.0,0.0,0.0,0
76f897717d325b35,1551426247656,1371,-7425.0,-8193.0,9215.0,0.0,0.0,0.0,0.0,0.0,0.0,0
76f897717d325b35,1551426247716,1372,-7425.0,-8193.0,9471.0,0.0,0.0,0.0,0.0,0.0,0.0,0
76f897717d325b35,1551426247776,1373,-7425.0,-8193.0,9215.0,0.0,0.0,0.0,0.0,0.0,0.0,0
76f897717d325b35,1551426247837,1374,-7425.0,-8193.0,9215.0,0.0,0.0,0.0,0.0,0.0,0.0,0
76f897717d325b35,1551426247927,1375,-7425.0,-8193.0,9471.0,0.0,0.0,0.0,0.0,0.0,0.0,0
76f897717d325b35,1551426247987,1376,-7425.0,-8193.0,9215.0,0.0,0.0,0.0,0.0,0.0,0.0,0
76f897717d325b35,1551426248047,1377,-7425.0,-8193.0,9215.0,0.0,0.0,0.0,0.0,0.0,0.0,0
76f897717d325b35,1551426248106,1378,-7425.0,-8193.0,9471.0,0.0,0.0,0.0,0.0,0.0,0.0,0
76f897717d325b35,1551426248167,1379,-7425.0,-8193.0,9215.0,0.0,0.0,0.0,0.0,0.0,0.0,0
76f897717d325b35,1551426248257,1380,-7425.0,-8193.0,9215.0,0.0,0.0,0.0,0.0,0.0,0.0,0
76f897717d325b35,1551426248317,1381,-7425.0,-8193.0,9215.0,0.0,0.0,0.0,0.0,0.0,0.0,0
76f897717d325b35,1551426248406,1382,-7425.0,-8193.0,9215.0,0.0,0.0,0.0,0.0,0.0,0.0,0
76f897717d325b35,1551426248437,1383,-7425.0,-8193.0,9215.0,0.0,0.0,0.0,0.0,0.0,0.0,0
76f897717d325b35,1551426248497,1384,-7425.0,-8193.0,9215.0,0.0,0.0,0.0,0.0,0.0,0.0,0
76f897717d325b35,1551426248586,1385,-7425.0,-8193.0,9215.0,0.0,0.0,0.0,0.0,0.0,0.0,0
76f897717d325b35,1551426248646,1386,-7425.0,-8193.0,9215.0,0.0,0.0,0.0,0.0,0.0,0.0,0
76f897717d325b35,1551426248706,1387,-7425.0,-8193.0,9215.0,0.0,0.0,0.0,0.0,0.0,0.0,0
76f897717d325b35,1551426248767,1388,-7425.0,-8193.0,9215.0,0.0,0.0,0.0,0.0,0.0,0.0,0
76f897717d325b35,1551426248827,1389,-7425.0,-8193.0,9215.0,0.0,0.0,0.0,0.0,0.0,0.0,0
76f897717d325b35,1551426248917,1390,-7425.0,-8193.0,9471.0,0.0,0.0,0.0,0.0,0.0,0.0,0
76f897717d325b35,1551426248976,1391,-7425.0,-8193.0,9471.0,0.0,0.0,0.0,0.0,0.0,0.0,0
76f897717d325b35,1551426249037,1392,-7425.0,-8193.0,9215.0,0.0,0.0,0.0,0.0,0.0,0.0,0
76f897717d325b35,1551426249096,1393,-7425.0,-8193.0,9215.0,0.0,0.0,0.0,0.0,0.0,0.0,0
76f897717d325b35,1551426249157,1394,-7425.0,-8193.0,9215.0,0.0,0.0,0.0,0.0,0.0,0.0,0
76f897717d325b35,1551426249247,1395,-7425.0,-8193.0,9215.0,0.0,0.0,0.0,0.0,0.0,0.0,0
76f897717d325b35,1551426250031,1396,-7425.0,-8193.0,9215.0,0.0,0.0,0.0,0.0,0.0,0.0,0
76f897717d325b35,1551426250091,1397,-7425.0,-8193.0,9215.0,0.0,0.0,0.0,0.0,0.0,0.0,0
76f897717d325b35,1551426250181,1398,-7425.0,-8193.0,9215.0,0.0,0.0,0.0,0.0,0.0,0.0,0
76f897717d325b35,1551426250241,1399,-7425.0,-8193.0,9215.0,0.0,0.0,0.0,0.0,0.0,0.0,0
76f897717d325b35,1551426250242,1400,-7425.0,-8193.0,9215.0,0.0,0.0,0.0,0.0,0.0,0.0,0
76f897717d325b35,1551426250302,1401,-7425.0,-8193.0,9215.0,0.0,0.0,0.0,0.0,0.0,0.0,0
76f897717d325b35,1551426250362,1402,-7425.0,-8193.0,9471.0,0.0,0.0,0.0,0.0,0.0,0.0,0
76f897717d325b35,1551426250422,1403,-7425.0,-8193.0,9215.0,0.0,0.0,0.0,0.0,0.0,0.0,0
76f897717d325b35,1551426250511,1404,-7425.0,-8193.0,9471.0,0.0,0.0,0.0,0.0,0.0,0.0,0
76f897717d325b35,1551426250572,1405,-7425.0,-8193.0,9215.0,0.0,0.0,0.0,0.0,0.0,0.0,0
76f897717d325b35,1551426250662,1406,-7425.0,-8193.0,9215.0,0.0,0.0,0.0,0.0,0.0,0.0,0
76f897717d325b35,1551426250691,1407,-7425.0,-8193.0,9471.0,0.0,0.0,0.0,0.0,0.0,0.0,0
76f897717d325b35,1551426250751,1408,-7425.0,-8193.0,9471.0,0.0,0.0,0.0,0.0,0.0,0.0,0
76f897717d325b35,1551426250841,1409,-7425.0,-8193.0,9215.0,0.0,0.0,0.0,0.0,0.0,0.0,0
76f897717d325b35,1551426250902,1410,-7425.0,-8193.0,9215.0,0.0,0.0,0.0,0.0,0.0,0.0,0
76f897717d325b35,1551426250962,1411,-7425.0,-8193.0,9215.0,0.0,0.0,0.0,0.0,0.0,0.0,0
76f897717d325b35,1551426251022,1412,-7425.0,-8193.0,9215.0,0.0,0.0,0.0,0.0,0.0,0.0,0
76f897717d325b35,1551426251082,1413,-7425.0,-8193.0,9471.0,0.0,0.0,0.0,0.0,0.0,0.0,0
76f897717d325b35,1551426251172,1414,-7425.0,-8193.0,9215.0,0.0,0.0,0.0,0.0,0.0,0.0,0
76f897717d325b35,1551426251232,1415,-7425.0,-8193.0,9215.0,0.0,0.0,0.0,0.0,0.0,0.0,0
76f897717d325b35,1551426251292,1416,-7425.0,-8193.0,9471.0,0.0,0.0,0.0,0.0,0.0,0.0,0
76f897717d325b35,1551426251352,1417,-7425.0,-8193.0,9471.0,0.0,0.0,0.0,0.0,0.0,0.0,0
76f897717d325b35,1551426251411,1418,-7425.0,-8193.0,9471.0,0.0,0.0,0.0,0.0,0.0,0.0,0
76f897717d325b35,1551426251501,1419,-7425.0,-8193.0,9471.0,0.0,0.0,0.0,0.0,0.0,0.0,0
76f897717d325b35,1551426251562,1420,-7425.0,-8193.0,9215.0,0.0,0.0,0.0,0.0,0.0,0.0,0
76f897717d325b35,1551426251622,1421,-7425.0,-8193.0,9471.0,0.0,0.0,0.0,0.0,0.0,0.0,0
