2562-03-05 124654,,,,,,,,,,,,
Start Time,2562/03/05 12:46:54,Timestamp,1551764814148,,,,,,,,,
sensor ID,timestamp (ms),Sample Count,acc_x,acc_y,acc_z,gyro_x,gyro_y,gyro_z,mag_x,mag_y,mag_z,mark
76f897717d325b35,1551764814206,0,,,,,,,,,,0
76f897717d325b35,1551764814206,0,,,,,,,,,,0
76f897717d325b35,1551764814206,0,,,,,,,,,,0
76f897717d325b35,1551764814206,0,,,,,,,,,,0
76f897717d325b35,1551764814206,0,-4865.0,-9473.0,7935.0,0.0,0.0,0.0,0.0,0.0,0.0,0
76f897717d325b35,1551764814219,1,-3841.0,-11009.0,8191.0,0.0,0.0,0.0,0.0,0.0,0.0,0
76f897717d325b35,1551764814337,2,-4865.0,-7425.0,10495.0,0.0,0.0,0.0,0.0,0.0,0.0,0
76f897717d325b35,1551764814398,3,-5121.0,-8705.0,10239.0,0.0,0.0,0.0,0.0,0.0,0.0,0
76f897717d325b35,1551764814517,4,-5889.0,-7937.0,10239.0,0.0,0.0,0.0,0.0,0.0,0.0,0
76f897717d325b35,1551764814547,5,-5377.0,-8193.0,9983.0,0.0,0.0,0.0,0.0,0.0,0.0,0
76f897717d325b35,1551764814637,6,-5377.0,-8449.0,9215.0,0.0,0.0,0.0,0.0,0.0,0.0,0
76f897717d325b35,1551764814667,7,-5633.0,-9473.0,9215.0,0.0,0.0,0.0,0.0,0.0,0.0,0
76f897717d325b35,1551764814698,8,-6657.0,-9217.0,9727.0,0.0,0.0,0.0,0.0,0.0,0.0,0
76f897717d325b35,1551764814787,9,-5377.0,-9473.0,10495.0,0.0,0.0,0.0,0.0,0.0,0.0,0
76f897717d325b35,1551764814968,10,-4097.0,-8961.0,10239.0,0.0,0.0,0.0,0.0,0.0,0.0,0
76f897717d325b35,1551764814969,11,-4353.0,-7937.0,10751.0,0.0,0.0,0.0,0.0,0.0,0.0,0
76f897717d325b35,1551764814970,12,-5121.0,-8961.0,8191.0,0.0,0.0,0.0,0.0,0.0,0.0,0
76f897717d325b35,1551764815117,13,-5633.0,-8193.0,9471.0,0.0,0.0,0.0,0.0,0.0,0.0,0
76f897717d325b35,1551764815207,14,-5889.0,-8193.0,8703.0,0.0,0.0,0.0,0.0,0.0,0.0,0
76f897717d325b35,1551764815268,15,-5121.0,-8961.0,8447.0,0.0,0.0,0.0,0.0,0.0,0.0,0
76f897717d325b35,1551764815269,16,-5377.0,-9217.0,8191.0,0.0,0.0,0.0,0.0,0.0,0.0,0
76f897717d325b35,1551764815328,17,-3585.0,-10753.0,11007.0,0.0,0.0,0.0,0.0,0.0,0.0,0
76f897717d325b35,1551764815358,18,-4353.0,-8449.0,10495.0,0.0,0.0,0.0,0.0,0.0,0.0,0
76f897717d325b35,1551764815477,19,-5377.0,-9473.0,9215.0,0.0,0.0,0.0,0.0,0.0,0.0,0
76f897717d325b35,1551764815479,20,-5121.0,-8449.0,9215.0,0.0,0.0,0.0,0.0,0.0,0.0,0
76f897717d325b35,1551764815568,21,-5377.0,-8449.0,9215.0,0.0,0.0,0.0,0.0,0.0,0.0,0
76f897717d325b35,1551764815628,22,-5377.0,-8449.0,8959.0,0.0,0.0,0.0,0.0,0.0,0.0,0
76f897717d325b35,1551764815688,23,-6145.0,-9217.0,8959.0,0.0,0.0,0.0,0.0,0.0,0.0,0
76f897717d325b35,1551764815748,24,-5633.0,-8449.0,9471.0,0.0,0.0,0.0,0.0,0.0,0.0,0
76f897717d325b35,1551764815808,25,-4865.0,-10241.0,11007.0,0.0,0.0,0.0,0.0,0.0,0.0,0
76f897717d325b35,1551764815898,26,-3841.0,-9473.0,10239.0,0.0,0.0,0.0,0.0,0.0,0.0,0
76f897717d325b35,1551764815988,27,-4353.0,-8449.0,9727.0,0.0,0.0,0.0,0.0,0.0,0.0,0
76f897717d325b35,1551764816018,28,-4865.0,-8705.0,8959.0,0.0,0.0,0.0,0.0,0.0,0.0,0
76f897717d325b35,1551764816108,29,-5633.0,-8449.0,8959.0,0.0,0.0,0.0,0.0,0.0,0.0,0
76f897717d325b35,1551764816137,30,-5633.0,-8193.0,8703.0,0.0,0.0,0.0,0.0,0.0,0.0,0
76f897717d325b35,1551764816198,31,-5121.0,-8705.0,9471.0,0.0,0.0,0.0,0.0,0.0,0.0,0
76f897717d325b35,1551764816288,32,-5889.0,-9473.0,8191.0,0.0,0.0,0.0,0.0,0.0,0.0,0
76f897717d325b35,1551764816348,33,-2561.0,-11009.0,10239.0,0.0,0.0,0.0,0.0,0.0,0.0,0
76f897717d325b35,1551764816408,34,-4097.0,-8449.0,9983.0,0.0,0.0,0.0,0.0,0.0,0.0,0
76f897717d325b35,1551764816498,35,-5121.0,-9473.0,9727.0,0.0,0.0,0.0,0.0,0.0,0.0,0
76f897717d325b35,1551764816528,36,-5121.0,-8193.0,9215.0,0.0,0.0,0.0,0.0,0.0,0.0,0
76f897717d325b35,1551764816618,37,-5121.0,-8449.0,9471.0,0.0,0.0,0.0,0.0,0.0,0.0,0
76f897717d325b35,1551764816708,38,-5633.0,-8193.0,8959.0,0.0,0.0,0.0,0.0,0.0,0.0,0
76f897717d325b35,1551764816737,39,-6145.0,-9217.0,8959.0,0.0,0.0,0.0,0.0,0.0,0.0,0
76f897717d325b35,1551764816828,40,-5633.0,-8705.0,9215.0,0.0,0.0,0.0,0.0,0.0,0.0,0
76f897717d325b35,1551764817067,41,-4353.0,-9729.0,9983.0,0.0,0.0,0.0,0.0,0.0,0.0,0
76f897717d325b35,1551764817068,42,-4097.0,-9217.0,10495.0,0.0,0.0,0.0,0.0,0.0,0.0,0
76f897717d325b35,1551764817070,43,-5633.0,-8705.0,11007.0,0.0,0.0,0.0,0.0,0.0,0.0,0
76f897717d325b35,1551764817127,44,-4865.0,-8705.0,9215.0,0.0,0.0,0.0,0.0,0.0,0.0,0
76f897717d325b35,1551764817129,45,-5377.0,-8449.0,9215.0,0.0,0.0,0.0,0.0,0.0,0.0,0
76f897717d325b35,1551764817188,46,-5377.0,-8449.0,8447.0,0.0,0.0,0.0,0.0,0.0,0.0,0
76f897717d325b35,1551764817337,47,-5377.0,-8705.0,8447.0,0.0,0.0,0.0,0.0,0.0,0.0,0
76f897717d325b35,1551764817338,48,-4609.0,-9473.0,7167.0,0.0,0.0,0.0,0.0,0.0,0.0,0
76f897717d325b35,1551764817398,49,-3329.0,-10753.0,11263.0,0.0,0.0,0.0,0.0,0.0,0.0,0
76f897717d325b35,1551764817458,50,-4353.0,-7681.0,10495.0,0.0,0.0,0.0,0.0,0.0,0.0,0
76f897717d325b35,1551764817518,51,-4609.0,-9217.0,9983.0,0.0,0.0,0.0,0.0,0.0,0.0,0
76f897717d325b35,1551764817608,52,-5377.0,-8705.0,9727.0,0.0,0.0,0.0,0.0,0.0,0.0,0
76f897717d325b35,1551764817668,53,-5121.0,-8449.0,9471.0,0.0,0.0,0.0,0.0,0.0,0.0,0
76f897717d325b35,1551764817728,54,-5121.0,-8449.0,8959.0,0.0,0.0,0.0,0.0,0.0,0.0,0
76f897717d325b35,1551764817818,55,-5633.0,-8449.0,9215.0,0.0,0.0,0.0,0.0,0.0,0.0,0
76f897717d325b35,1551764817848,56,-5889.0,-8705.0,9471.0,0.0,0.0,0.0,0.0,0.0,0.0,0
76f897717d325b35,1551764817937,57,-5889.0,-8449.0,9471.0,0.0,0.0,0.0,0.0,0.0,0.0,0
76f897717d325b35,1551764818028,58,-5633.0,-10497.0,10239.0,0.0,0.0,0.0,0.0,0.0,0.0,0
76f897717d325b35,1551764818058,59,-4609.0,-8193.0,9727.0,0.0,0.0,0.0,0.0,0.0,0.0,0
76f897717d325b35,1551764818147,60,-3585.0,-8193.0,10495.0,0.0,0.0,0.0,0.0,0.0,0.0,0
76f897717d325b35,1551764818208,61,-5889.0,-9985.0,8191.0,0.0,0.0,0.0,0.0,0.0,0.0,0
76f897717d325b35,1551764818448,62,-4865.0,-8449.0,9471.0,0.0,0.0,0.0,0.0,0.0,0.0,0
76f897717d325b35,1551764818449,63,-5377.0,-8449.0,8703.0,0.0,0.0,0.0,0.0,0.0,0.0,0
76f897717d325b35,1551764818450,64,-5633.0,-8449.0,8959.0,0.0,0.0,0.0,0.0,0.0,0.0,0
76f897717d325b35,1551764818478,65,-5121.0,-8705.0,9471.0,0.0,0.0,0.0,0.0,0.0,0.0,0
76f897717d325b35,1551764818627,66,-6913.0,-8961.0,11007.0,0.0,0.0,0.0,0.0,0.0,0.0,0
76f897717d325b35,1551764818629,67,-3073.0,-10241.0,8703.0,0.0,0.0,0.0,0.0,0.0,0.0,0
76f897717d325b35,1551764818658,68,-4865.0,-8193.0,10239.0,0.0,0.0,0.0,0.0,0.0,0.0,0
76f897717d325b35,1551764818717,69,-5121.0,-9217.0,9727.0,0.0,0.0,0.0,0.0,0.0,0.0,0
76f897717d325b35,1551764818957,70,-5121.0,-8193.0,9471.0,0.0,0.0,0.0,0.0,0.0,0.0,0
76f897717d325b35,1551764818958,71,-4609.0,-8193.0,8959.0,0.0,0.0,0.0,0.0,0.0,0.0,0
76f897717d325b35,1551764819017,72,-5377.0,-8705.0,9215.0,0.0,0.0,0.0,0.0,0.0,0.0,0
76f897717d325b35,1551764819047,73,-6401.0,-9473.0,8703.0,0.0,0.0,0.0,0.0,0.0,0.0,0
76f897717d325b35,1551764819049,74,-6145.0,-8449.0,9727.0,0.0,0.0,0.0,0.0,0.0,0.0,0
76f897717d325b35,1551764819137,75,-5633.0,-10497.0,9983.0,0.0,0.0,0.0,0.0,0.0,0.0,0
76f897717d325b35,1551764819168,76,-3841.0,-8961.0,10239.0,0.0,0.0,0.0,0.0,0.0,0.0,0
76f897717d325b35,1551764819258,77,-2561.0,-8193.0,10751.0,0.0,0.0,0.0,0.0,0.0,0.0,0
76f897717d325b35,1551764819348,78,-5377.0,-9473.0,7679.0,0.0,0.0,0.0,0.0,0.0,0.0,0
76f897717d325b35,1551764819408,79,-5633.0,-8449.0,9471.0,0.0,0.0,0.0,0.0,0.0,0.0,0
76f897717d325b35,1551764819468,80,-5377.0,-8193.0,8447.0,0.0,0.0,0.0,0.0,0.0,0.0,0
76f897717d325b35,1551764819498,81,-5377.0,-8961.0,8447.0,0.0,0.0,0.0,0.0,0.0,0.0,0
76f897717d325b35,1551764819618,82,-5121.0,-8705.0,8703.0,0.0,0.0,0.0,0.0,0.0,0.0,0
76f897717d325b35,1551764819707,83,-6401.0,-8961.0,9983.0,0.0,0.0,0.0,0.0,0.0,0.0,0
76f897717d325b35,1551764819709,84,-3329.0,-10241.0,8703.0,0.0,0.0,0.0,0.0,0.0,0.0,0
76f897717d325b35,1551764819768,85,-4609.0,-8193.0,10495.0,0.0,0.0,0.0,0.0,0.0,0.0,0
76f897717d325b35,1551764819828,86,-4865.0,-9217.0,9727.0,0.0,0.0,0.0,0.0,0.0,0.0,0
76f897717d325b35,1551764819918,87,-4865.0,-8449.0,9727.0,0.0,0.0,0.0,0.0,0.0,0.0,0
76f897717d325b35,1551764820010,88,-4609.0,-8705.0,9215.0,0.0,0.0,0.0,0.0,0.0,0.0,0
76f897717d325b35,1551764820038,89,-4609.0,-8705.0,9215.0,0.0,0.0,0.0,0.0,0.0,0.0,0
76f897717d325b35,1551764820097,90,-5633.0,-8961.0,9727.0,0.0,0.0,0.0,0.0,0.0,0.0,0
76f897717d325b35,1551764820157,91,-6145.0,-8705.0,9471.0,0.0,0.0,0.0,0.0,0.0,0.0,0
76f897717d325b35,1551764820307,92,-5377.0,-8705.0,9727.0,0.0,0.0,0.0,0.0,0.0,0.0,0
76f897717d325b35,1551764820309,93,-4353.0,-9473.0,9727.0,0.0,0.0,0.0,0.0,0.0,0.0,0
76f897717d325b35,1551764820368,94,-3585.0,-9217.0,10239.0,0.0,0.0,0.0,0.0,0.0,0.0,0
76f897717d325b35,1551764820428,95,-4865.0,-8705.0,9727.0,0.0,0.0,0.0,0.0,0.0,0.0,0
76f897717d325b35,1551764820488,96,-4609.0,-8449.0,9983.0,0.0,0.0,0.0,0.0,0.0,0.0,0
76f897717d325b35,1551764820578,97,-4865.0,-8193.0,10239.0,0.0,0.0,0.0,0.0,0.0,0.0,0
76f897717d325b35,1551764820668,98,-5121.0,-9217.0,10239.0,0.0,0.0,0.0,0.0,0.0,0.0,0
76f897717d325b35,1551764820698,99,-4865.0,-8449.0,9727.0,0.0,0.0,0.0,0.0,0.0,0.0,0
76f897717d325b35,1551764820788,100,-6145.0,-8449.0,9471.0,0.0,0.0,0.0,0.0,0.0,0.0,0
76f897717d325b35,1551764820818,101,-6145.0,-8961.0,9727.0,0.0,0.0,0.0,0.0,0.0,0.0,0
76f897717d325b35,1551764820908,102,-5377.0,-9217.0,9471.0,0.0,0.0,0.0,0.0,0.0,0.0,0
76f897717d325b35,1551764821057,103,-5633.0,-8705.0,9727.0,0.0,0.0,0.0,0.0,0.0,0.0,0
76f897717d325b35,1551764821058,104,-5889.0,-8449.0,9727.0,0.0,0.0,0.0,0.0,0.0,0.0,0
76f897717d325b35,1551764821118,105,-5121.0,-9473.0,9727.0,0.0,0.0,0.0,0.0,0.0,0.0,0
76f897717d325b35,1551764821148,106,-5377.0,-8961.0,9727.0,0.0,0.0,0.0,0.0,0.0,0.0,0
76f897717d325b35,1551764821237,107,-5121.0,-8705.0,9983.0,0.0,0.0,0.0,0.0,0.0,0.0,0
76f897717d325b35,1551764821357,108,-4865.0,-8449.0,9983.0,0.0,0.0,0.0,0.0,0.0,0.0,0
76f897717d325b35,1551764821388,109,-4353.0,-8705.0,9727.0,0.0,0.0,0.0,0.0,0.0,0.0,0
76f897717d325b35,1551764821418,110,-4865.0,-8961.0,9471.0,0.0,0.0,0.0,0.0,0.0,0.0,0
76f897717d325b35,1551764821477,111,-4865.0,-8961.0,9471.0,0.0,0.0,0.0,0.0,0.0,0.0,0
76f897717d325b35,1551764821568,112,-4865.0,-8705.0,9215.0,0.0,0.0,0.0,0.0,0.0,0.0,0
76f897717d325b35,1551764821628,113,-5377.0,-8705.0,9471.0,0.0,0.0,0.0,0.0,0.0,0.0,0
76f897717d325b35,1551764821718,114,-4865.0,-8705.0,9727.0,0.0,0.0,0.0,0.0,0.0,0.0,0
76f897717d325b35,1551764821747,115,-4865.0,-8961.0,9983.0,0.0,0.0,0.0,0.0,0.0,0.0,0
76f897717d325b35,1551764821808,116,-4609.0,-8961.0,10495.0,0.0,0.0,0.0,0.0,0.0,0.0,0
76f897717d325b35,1551764821898,117,-5121.0,-8705.0,9727.0,0.0,0.0,0.0,0.0,0.0,0.0,0
76f897717d325b35,1551764821958,118,-5377.0,-8705.0,9727.0,0.0,0.0,0.0,0.0,0.0,0.0,0
76f897717d325b35,1551764822018,119,-5377.0,-8705.0,9471.0,0.0,0.0,0.0,0.0,0.0,0.0,0
76f897717d325b35,1551764822078,120,-5121.0,-8705.0,9727.0,0.0,0.0,0.0,0.0,0.0,0.0,0
76f897717d325b35,1551764822137,121,-5377.0,-8705.0,9727.0,0.0,0.0,0.0,0.0,0.0,0.0,0
76f897717d325b35,1551764822228,122,-5121.0,-8705.0,9727.0,0.0,0.0,0.0,0.0,0.0,0.0,0
76f897717d325b35,1551764822288,123,-5377.0,-8705.0,9471.0,0.0,0.0,0.0,0.0,0.0,0.0,0
76f897717d325b35,1551764822348,124,-5377.0,-8705.0,9727.0,0.0,0.0,0.0,0.0,0.0,0.0,0
76f897717d325b35,1551764822437,125,-5121.0,-8961.0,9471.0,0.0,0.0,0.0,0.0,0.0,0.0,0
76f897717d325b35,1551764822468,126,-5377.0,-8961.0,9727.0,0.0,0.0,0.0,0.0,0.0,0.0,0
76f897717d325b35,1551764822558,127,-5121.0,-8705.0,9983.0,0.0,0.0,0.0,0.0,0.0,0.0,0
76f897717d325b35,1551764822648,128,-5121.0,-8961.0,9727.0,0.0,0.0,0.0,0.0,0.0,0.0,0
76f897717d325b35,1551764822678,129,-5121.0,-8705.0,9983.0,0.0,0.0,0.0,0.0,0.0,0.0,0
76f897717d325b35,1551764822737,130,-5121.0,-8961.0,9471.0,0.0,0.0,0.0,0.0,0.0,0.0,0
76f897717d325b35,1551764822798,131,-5377.0,-8961.0,9727.0,0.0,0.0,0.0,0.0,0.0,0.0,0
76f897717d325b35,1551764822888,132,-4865.0,-8705.0,9471.0,0.0,0.0,0.0,0.0,0.0,0.0,0
76f897717d325b35,1551764822948,133,-4865.0,-8705.0,9471.0,0.0,0.0,0.0,0.0,0.0,0.0,0
76f897717d325b35,1551764823008,134,-5121.0,-9217.0,9471.0,0.0,0.0,0.0,0.0,0.0,0.0,0
76f897717d325b35,1551764823068,135,-4865.0,-8961.0,9471.0,0.0,0.0,0.0,0.0,0.0,0.0,0
76f897717d325b35,1551764823128,136,-5121.0,-8705.0,9471.0,0.0,0.0,0.0,0.0,0.0,0.0,0
76f897717d325b35,1551764823218,137,-4865.0,-8961.0,9471.0,0.0,0.0,0.0,0.0,0.0,0.0,0
76f897717d325b35,1551764823278,138,-5121.0,-8705.0,9471.0,0.0,0.0,0.0,0.0,0.0,0.0,0
76f897717d325b35,1551764823337,139,-5121.0,-8705.0,9727.0,0.0,0.0,0.0,0.0,0.0,0.0,0
76f897717d325b35,1551764823398,140,-5121.0,-8705.0,9471.0,0.0,0.0,0.0,0.0,0.0,0.0,0
76f897717d325b35,1551764823457,141,-5121.0,-8705.0,9471.0,0.0,0.0,0.0,0.0,0.0,0.0,0
76f897717d325b35,1551764823547,142,-5377.0,-8705.0,9471.0,0.0,0.0,0.0,0.0,0.0,0.0,0
76f897717d325b35,1551764823607,143,-5121.0,-8961.0,9471.0,0.0,0.0,0.0,0.0,0.0,0.0,0
76f897717d325b35,1551764823667,144,-5377.0,-8705.0,9471.0,0.0,0.0,0.0,0.0,0.0,0.0,0
76f897717d325b35,1551764823727,145,-5121.0,-8705.0,9471.0,0.0,0.0,0.0,0.0,0.0,0.0,0
76f897717d325b35,1551764823787,146,-5377.0,-8705.0,9471.0,0.0,0.0,0.0,0.0,0.0,0.0,0
76f897717d325b35,1551764823877,147,-5377.0,-8705.0,9471.0,0.0,0.0,0.0,0.0,0.0,0.0,0
76f897717d325b35,1551764823937,148,-5121.0,-8705.0,9471.0,0.0,0.0,0.0,0.0,0.0,0.0,0
76f897717d325b35,1551764823997,149,-5377.0,-8961.0,9471.0,0.0,0.0,0.0,0.0,0.0,0.0,0
76f897717d325b35,1551764824058,150,-5121.0,-8705.0,9471.0,0.0,0.0,0.0,0.0,0.0,0.0,0
76f897717d325b35,1551764824117,151,-5121.0,-8961.0,9471.0,0.0,0.0,0.0,0.0,0.0,0.0,0
76f897717d325b35,1551764824208,152,-5377.0,-8961.0,9471.0,0.0,0.0,0.0,0.0,0.0,0.0,0
76f897717d325b35,1551764824268,153,-5121.0,-8705.0,9471.0,0.0,0.0,0.0,0.0,0.0,0.0,0
76f897717d325b35,1551764824328,154,-5377.0,-8961.0,9471.0,0.0,0.0,0.0,0.0,0.0,0.0,0
76f897717d325b35,1551764824388,155,-5377.0,-8961.0,9471.0,0.0,0.0,0.0,0.0,0.0,0.0,0
76f897717d325b35,1551764824448,156,-5377.0,-8961.0,9471.0,0.0,0.0,0.0,0.0,0.0,0.0,0
76f897717d325b35,1551764824568,157,-5377.0,-8705.0,9471.0,0.0,0.0,0.0,0.0,0.0,0.0,0
76f897717d325b35,1551764824598,158,-5377.0,-8961.0,9471.0,0.0,0.0,0.0,0.0,0.0,0.0,0
76f897717d325b35,1551764824658,159,-5377.0,-8961.0,9471.0,0.0,0.0,0.0,0.0,0.0,0.0,0
76f897717d325b35,1551764824718,160,-5377.0,-8961.0,9471.0,0.0,0.0,0.0,0.0,0.0,0.0,0
76f897717d325b35,1551764824778,161,-5377.0,-8961.0,9471.0,0.0,0.0,0.0,0.0,0.0,0.0,0
76f897717d325b35,1551764824868,162,-5377.0,-8961.0,9215.0,0.0,0.0,0.0,0.0,0.0,0.0,0
76f897717d325b35,1551764824928,163,-5377.0,-8961.0,9471.0,0.0,0.0,0.0,0.0,0.0,0.0,0
76f897717d325b35,1551764824987,164,-5377.0,-8705.0,9471.0,0.0,0.0,0.0,0.0,0.0,0.0,0
76f897717d325b35,1551764825048,165,-5377.0,-8961.0,9471.0,0.0,0.0,0.0,0.0,0.0,0.0,0
76f897717d325b35,1551764825107,166,-5377.0,-8705.0,9471.0,0.0,0.0,0.0,0.0,0.0,0.0,0
76f897717d325b35,1551764825198,167,-5377.0,-8705.0,9471.0,0.0,0.0,0.0,0.0,0.0,0.0,0
76f897717d325b35,1551764825258,168,-5377.0,-8961.0,9471.0,0.0,0.0,0.0,0.0,0.0,0.0,0
76f897717d325b35,1551764825318,169,-5377.0,-8961.0,9471.0,0.0,0.0,0.0,0.0,0.0,0.0,0
76f897717d325b35,1551764825377,170,-5377.0,-8705.0,9471.0,0.0,0.0,0.0,0.0,0.0,0.0,0
76f897717d325b35,1551764825437,171,-5377.0,-8705.0,9471.0,0.0,0.0,0.0,0.0,0.0,0.0,0
76f897717d325b35,1551764825528,172,-5377.0,-8961.0,9471.0,0.0,0.0,0.0,0.0,0.0,0.0,0
76f897717d325b35,1551764825588,173,-5377.0,-8961.0,9471.0,0.0,0.0,0.0,0.0,0.0,0.0,0
76f897717d325b35,1551764825648,174,-5377.0,-8705.0,9471.0,0.0,0.0,0.0,0.0,0.0,0.0,0
76f897717d325b35,1551764825708,175,-5377.0,-8705.0,9471.0,0.0,0.0,0.0,0.0,0.0,0.0,0
76f897717d325b35,1551764825768,176,-5377.0,-8705.0,9471.0,0.0,0.0,0.0,0.0,0.0,0.0,0
76f897717d325b35,1551764825857,177,-5377.0,-8961.0,9471.0,0.0,0.0,0.0,0.0,0.0,0.0,0
76f897717d325b35,1551764825918,178,-5377.0,-8961.0,9471.0,0.0,0.0,0.0,0.0,0.0,0.0,0
76f897717d325b35,1551764826008,179,-5377.0,-8961.0,9471.0,0.0,0.0,0.0,0.0,0.0,0.0,0
76f897717d325b35,1551764826037,180,-5377.0,-8705.0,9471.0,0.0,0.0,0.0,0.0,0.0,0.0,0
76f897717d325b35,1551764826098,181,-5377.0,-8961.0,9471.0,0.0,0.0,0.0,0.0,0.0,0.0,0
76f897717d325b35,1551764826187,182,-5377.0,-8705.0,9471.0,0.0,0.0,0.0,0.0,0.0,0.0,0
76f897717d325b35,1551764826247,183,-5377.0,-8705.0,9471.0,0.0,0.0,0.0,0.0,0.0,0.0,0
76f897717d325b35,1551764826308,184,-5377.0,-8961.0,9471.0,0.0,0.0,0.0,0.0,0.0,0.0,0
76f897717d325b35,1551764826368,185,-5377.0,-8705.0,9471.0,0.0,0.0,0.0,0.0,0.0,0.0,0
76f897717d325b35,1551764826428,186,-5377.0,-8705.0,9471.0,0.0,0.0,0.0,0.0,0.0,0.0,0
76f897717d325b35,1551764826548,187,-5377.0,-8705.0,9471.0,0.0,0.0,0.0,0.0,0.0,0.0,0
76f897717d325b35,1551764826577,188,-5377.0,-8961.0,9471.0,0.0,0.0,0.0,0.0,0.0,0.0,0
76f897717d325b35,1551764826637,189,-5377.0,-8705.0,9471.0,0.0,0.0,0.0,0.0,0.0,0.0,0
76f897717d325b35,1551764826698,190,-5377.0,-8961.0,9471.0,0.0,0.0,0.0,0.0,0.0,0.0,0
76f897717d325b35,1551764826757,191,-5377.0,-8705.0,9471.0,0.0,0.0,0.0,0.0,0.0,0.0,0
76f897717d325b35,1551764826848,192,-5377.0,-8961.0,9471.0,0.0,0.0,0.0,0.0,0.0,0.0,0
76f897717d325b35,1551764826908,193,-5377.0,-8961.0,9471.0,0.0,0.0,0.0,0.0,0.0,0.0,0
76f897717d325b35,1551764826968,194,-5377.0,-8961.0,9471.0,0.0,0.0,0.0,0.0,0.0,0.0,0
76f897717d325b35,1551764827028,195,-5377.0,-8961.0,9471.0,0.0,0.0,0.0,0.0,0.0,0.0,0
76f897717d325b35,1551764827088,196,-5377.0,-8705.0,9471.0,0.0,0.0,0.0,0.0,0.0,0.0,0
76f897717d325b35,1551764827177,197,-5377.0,-8961.0,9471.0,0.0,0.0,0.0,0.0,0.0,0.0,0
76f897717d325b35,1551764827237,198,-5377.0,-8705.0,9471.0,0.0,0.0,0.0,0.0,0.0,0.0,0
76f897717d325b35,1551764827327,199,-5377.0,-8961.0,9471.0,0.0,0.0,0.0,0.0,0.0,0.0,0
76f897717d325b35,1551764827357,200,-5377.0,-8705.0,9471.0,0.0,0.0,0.0,0.0,0.0,0.0,0
76f897717d325b35,1551764827418,201,-5377.0,-8705.0,9471.0,0.0,0.0,0.0,0.0,0.0,0.0,0
76f897717d325b35,1551764827507,202,-5377.0,-8705.0,9471.0,0.0,0.0,0.0,0.0,0.0,0.0,0
76f897717d325b35,1551764827568,203,-5377.0,-8705.0,9471.0,0.0,0.0,0.0,0.0,0.0,0.0,0
76f897717d325b35,1551764827627,204,-5377.0,-8961.0,9471.0,0.0,0.0,0.0,0.0,0.0,0.0,0
76f897717d325b35,1551764827688,205,-5377.0,-8705.0,9471.0,0.0,0.0,0.0,0.0,0.0,0.0,0
76f897717d325b35,1551764827747,206,-5377.0,-8705.0,9471.0,0.0,0.0,0.0,0.0,0.0,0.0,0
76f897717d325b35,1551764827838,207,-5377.0,-8961.0,9471.0,0.0,0.0,0.0,0.0,0.0,0.0,0
76f897717d325b35,1551764827898,208,-5377.0,-8705.0,9471.0,0.0,0.0,0.0,0.0,0.0,0.0,0
76f897717d325b35,1551764827957,209,-5377.0,-8705.0,9471.0,0.0,0.0,0.0,0.0,0.0,0.0,0
76f897717d325b35,1551764828017,210,-5377.0,-8705.0,9471.0,0.0,0.0,0.0,0.0,0.0,0.0,0
76f897717d325b35,1551764828078,211,-5377.0,-8705.0,9471.0,0.0,0.0,0.0,0.0,0.0,0.0,0
76f897717d325b35,1551764828167,212,-5377.0,-8961.0,9471.0,0.0,0.0,0.0,0.0,0.0,0.0,0
76f897717d325b35,1551764828227,213,-5377.0,-8705.0,9471.0,0.0,0.0,0.0,0.0,0.0,0.0,0
76f897717d325b35,1551764828289,214,-5377.0,-8705.0,9471.0,0.0,0.0,0.0,0.0,0.0,0.0,0
76f897717d325b35,1551764828348,215,-5377.0,-8705.0,9471.0,0.0,0.0,0.0,0.0,0.0,0.0,0
76f897717d325b35,1551764828408,216,-5377.0,-8705.0,9471.0,0.0,0.0,0.0,0.0,0.0,0.0,0
76f897717d325b35,1551764828497,217,-5377.0,-8705.0,9471.0,0.0,0.0,0.0,0.0,0.0,0.0,0
76f897717d325b35,1551764828587,218,-5377.0,-8961.0,9471.0,0.0,0.0,0.0,0.0,0.0,0.0,0
76f897717d325b35,1551764828618,219,-5377.0,-8961.0,9471.0,0.0,0.0,0.0,0.0,0.0,0.0,0
76f897717d325b35,1551764828678,220,-5377.0,-8705.0,9471.0,0.0,0.0,0.0,0.0,0.0,0.0,0
76f897717d325b35,1551764828737,221,-5377.0,-8705.0,9471.0,0.0,0.0,0.0,0.0,0.0,0.0,0
76f897717d325b35,1551764828828,222,-5377.0,-8705.0,9471.0,0.0,0.0,0.0,0.0,0.0,0.0,0
76f897717d325b35,1551764828887,223,-5377.0,-8705.0,9471.0,0.0,0.0,0.0,0.0,0.0,0.0,0
76f897717d325b35,1551764828947,224,-5377.0,-8961.0,9471.0,0.0,0.0,0.0,0.0,0.0,0.0,0
76f897717d325b35,1551764829007,225,-5377.0,-8705.0,9471.0,0.0,0.0,0.0,0.0,0.0,0.0,0
76f897717d325b35,1551764829067,226,-5377.0,-8705.0,9471.0,0.0,0.0,0.0,0.0,0.0,0.0,0
76f897717d325b35,1551764829157,227,-5377.0,-8705.0,9471.0,0.0,0.0,0.0,0.0,0.0,0.0,0
76f897717d325b35,1551764829218,228,-5377.0,-8961.0,9471.0,0.0,0.0,0.0,0.0,0.0,0.0,0
76f897717d325b35,1551764829277,229,-5377.0,-8705.0,9471.0,0.0,0.0,0.0,0.0,0.0,0.0,0
76f897717d325b35,1551764829337,230,-5377.0,-8705.0,9471.0,0.0,0.0,0.0,0.0,0.0,0.0,0
76f897717d325b35,1551764829397,231,-5377.0,-8961.0,9471.0,0.0,0.0,0.0,0.0,0.0,0.0,0
76f897717d325b35,1551764829488,232,-5377.0,-8961.0,9471.0,0.0,0.0,0.0,0.0,0.0,0.0,0
76f897717d325b35,1551764829548,233,-5377.0,-8961.0,9471.0,0.0,0.0,0.0,0.0,0.0,0.0,0
76f897717d325b35,1551764829608,234,-5377.0,-8705.0,9471.0,0.0,0.0,0.0,0.0,0.0,0.0,0
76f897717d325b35,1551764829698,235,-5377.0,-8705.0,9471.0,0.0,0.0,0.0,0.0,0.0,0.0,0
76f897717d325b35,1551764829726,236,-5377.0,-8705.0,9471.0,0.0,0.0,0.0,0.0,0.0,0.0,0
76f897717d325b35,1551764829728,237,-5377.0,-8705.0,9471.0,0.0,0.0,0.0,0.0,0.0,0.0,0
76f897717d325b35,1551764829817,238,-5377.0,-8705.0,9471.0,0.0,0.0,0.0,0.0,0.0,0.0,0
76f897717d325b35,1551764829877,239,-5377.0,-8961.0,9471.0,0.0,0.0,0.0,0.0,0.0,0.0,0
76f897717d325b35,1551764829937,240,-5377.0,-8705.0,9471.0,0.0,0.0,0.0,0.0,0.0,0.0,0
76f897717d325b35,1551764829997,241,-5377.0,-8705.0,9471.0,0.0,0.0,0.0,0.0,0.0,0.0,0
76f897717d325b35,1551764830057,242,-5377.0,-8705.0,9471.0,0.0,0.0,0.0,0.0,0.0,0.0,0
76f897717d325b35,1551764830147,243,-5377.0,-8961.0,9471.0,0.0,0.0,0.0,0.0,0.0,0.0,0
76f897717d325b35,1551764830208,244,-5377.0,-8705.0,9471.0,0.0,0.0,0.0,0.0,0.0,0.0,0
76f897717d325b35,1551764830267,245,-5377.0,-8705.0,9471.0,0.0,0.0,0.0,0.0,0.0,0.0,0
76f897717d325b35,1551764830327,246,-5377.0,-8961.0,9471.0,0.0,0.0,0.0,0.0,0.0,0.0,0
76f897717d325b35,1551764830387,247,-5377.0,-8705.0,9471.0,0.0,0.0,0.0,0.0,0.0,0.0,0
76f897717d325b35,1551764830477,248,-5377.0,-8961.0,9471.0,0.0,0.0,0.0,0.0,0.0,0.0,0
76f897717d325b35,1551764830537,249,-5377.0,-8705.0,9471.0,0.0,0.0,0.0,0.0,0.0,0.0,0
76f897717d325b35,1551764830597,250,-5377.0,-8705.0,9471.0,0.0,0.0,0.0,0.0,0.0,0.0,0
76f897717d325b35,1551764830658,251,-5377.0,-8705.0,9471.0,0.0,0.0,0.0,0.0,0.0,0.0,0
76f897717d325b35,1551764830717,252,-5377.0,-8961.0,9471.0,0.0,0.0,0.0,0.0,0.0,0.0,0
76f897717d325b35,1551764830808,253,-5377.0,-8705.0,9471.0,0.0,0.0,0.0,0.0,0.0,0.0,0
76f897717d325b35,1551764830867,254,-5377.0,-8961.0,9471.0,0.0,0.0,0.0,0.0,0.0,0.0,0
76f897717d325b35,1551764830927,255,-5377.0,-8705.0,9471.0,0.0,0.0,0.0,0.0,0.0,0.0,0
76f897717d325b35,1551764830987,256,-5377.0,-8705.0,9471.0,0.0,0.0,0.0,0.0,0.0,0.0,0
76f897717d325b35,1551764831048,257,-5377.0,-8961.0,9471.0,0.0,0.0,0.0,0.0,0.0,0.0,0
76f897717d325b35,1551764831137,258,-5377.0,-8705.0,9471.0,0.0,0.0,0.0,0.0,0.0,0.0,0
76f897717d325b35,1551764831227,259,-5377.0,-8705.0,9727.0,0.0,0.0,0.0,0.0,0.0,0.0,0
76f897717d325b35,1551764831257,260,-5121.0,-8705.0,9471.0,0.0,0.0,0.0,0.0,0.0,0.0,0
76f897717d325b35,1551764831317,261,-5377.0,-8961.0,9471.0,0.0,0.0,0.0,0.0,0.0,0.0,0
76f897717d325b35,1551764831377,262,-5121.0,-8705.0,9727.0,0.0,0.0,0.0,0.0,0.0,0.0,0
76f897717d325b35,1551764831467,263,-5377.0,-8705.0,9727.0,0.0,0.0,0.0,0.0,0.0,0.0,0
76f897717d325b35,1551764831528,264,-5121.0,-8705.0,9471.0,0.0,0.0,0.0,0.0,0.0,0.0,0
76f897717d325b35,1551764831587,265,-5377.0,-8705.0,9471.0,0.0,0.0,0.0,0.0,0.0,0.0,0
76f897717d325b35,1551764831647,266,-5377.0,-8705.0,9471.0,0.0,0.0,0.0,0.0,0.0,0.0,0
76f897717d325b35,1551764831708,267,-5377.0,-8961.0,9471.0,0.0,0.0,0.0,0.0,0.0,0.0,0
76f897717d325b35,1551764831827,268,-5377.0,-8705.0,9727.0,0.0,0.0,0.0,0.0,0.0,0.0,0
76f897717d325b35,1551764831857,269,-5377.0,-8705.0,9471.0,0.0,0.0,0.0,0.0,0.0,0.0,0
76f897717d325b35,1551764831917,270,-5377.0,-8705.0,9727.0,0.0,0.0,0.0,0.0,0.0,0.0,0
76f897717d325b35,1551764831977,271,-5377.0,-8705.0,9471.0,0.0,0.0,0.0,0.0,0.0,0.0,0
76f897717d325b35,1551764832037,272,-5377.0,-8705.0,9471.0,0.0,0.0,0.0,0.0,0.0,0.0,0
76f897717d325b35,1551764832157,273,-5377.0,-8705.0,9727.0,0.0,0.0,0.0,0.0,0.0,0.0,0
76f897717d325b35,1551764832217,274,-5377.0,-8705.0,9471.0,0.0,0.0,0.0,0.0,0.0,0.0,0
76f897717d325b35,1551764832247,275,-5377.0,-8705.0,9471.0,0.0,0.0,0.0,0.0,0.0,0.0,0
76f897717d325b35,1551764832307,276,-5377.0,-8961.0,9471.0,0.0,0.0,0.0,0.0,0.0,0.0,0
76f897717d325b35,1551764832367,277,-5377.0,-8705.0,9471.0,0.0,0.0,0.0,0.0,0.0,0.0,0
76f897717d325b35,1551764832457,278,-5377.0,-8705.0,9471.0,0.0,0.0,0.0,0.0,0.0,0.0,0
76f897717d325b35,1551764832547,279,-5377.0,-8961.0,9471.0,0.0,0.0,0.0,0.0,0.0,0.0,0
76f897717d325b35,1551764832577,280,-5377.0,-8705.0,9471.0,0.0,0.0,0.0,0.0,0.0,0.0,0
76f897717d325b35,1551764832637,281,-5377.0,-8705.0,9471.0,0.0,0.0,0.0,0.0,0.0,0.0,0
76f897717d325b35,1551764832697,282,-5377.0,-8705.0,9471.0,0.0,0.0,0.0,0.0,0.0,0.0,0
76f897717d325b35,1551764832787,283,-5377.0,-8961.0,9471.0,0.0,0.0,0.0,0.0,0.0,0.0,0
76f897717d325b35,1551764832847,284,-5377.0,-8705.0,9471.0,0.0,0.0,0.0,0.0,0.0,0.0,0
76f897717d325b35,1551764832908,285,-5377.0,-8961.0,9471.0,0.0,0.0,0.0,0.0,0.0,0.0,0
76f897717d325b35,1551764832997,286,-5377.0,-8705.0,9471.0,0.0,0.0,0.0,0.0,0.0,0.0,0
76f897717d325b35,1551764833027,287,-5377.0,-8705.0,9471.0,0.0,0.0,0.0,0.0,0.0,0.0,0
76f897717d325b35,1551764833118,288,-5377.0,-8961.0,9471.0,0.0,0.0,0.0,0.0,0.0,0.0,0
76f897717d325b35,1551764833177,289,-5377.0,-8705.0,9727.0,0.0,0.0,0.0,0.0,0.0,0.0,0
76f897717d325b35,1551764833237,290,-5377.0,-8705.0,9727.0,0.0,0.0,0.0,0.0,0.0,0.0,0
76f897717d325b35,1551764833327,291,-5377.0,-8705.0,9471.0,0.0,0.0,0.0,0.0,0.0,0.0,0
76f897717d325b35,1551764833357,292,-5377.0,-8705.0,9727.0,0.0,0.0,0.0,0.0,0.0,0.0,0
76f897717d325b35,1551764833447,293,-5377.0,-8705.0,9727.0,0.0,0.0,0.0,0.0,0.0,0.0,0
76f897717d325b35,1551764833537,294,-5377.0,-8705.0,9471.0,0.0,0.0,0.0,0.0,0.0,0.0,0
76f897717d325b35,1551764833598,295,-5377.0,-8705.0,9727.0,0.0,0.0,0.0,0.0,0.0,0.0,0
76f897717d325b35,1551764833657,296,-5377.0,-8961.0,9727.0,0.0,0.0,0.0,0.0,0.0,0.0,0
76f897717d325b35,1551764833688,297,-5377.0,-8961.0,9727.0,0.0,0.0,0.0,0.0,0.0,0.0,0
76f897717d325b35,1551764833777,298,-5377.0,-8705.0,9727.0,0.0,0.0,0.0,0.0,0.0,0.0,0
76f897717d325b35,1551764833837,299,-5121.0,-8705.0,9727.0,0.0,0.0,0.0,0.0,0.0,0.0,0
76f897717d325b35,1551764833897,300,-5377.0,-8705.0,9727.0,0.0,0.0,0.0,0.0,0.0,0.0,0
76f897717d325b35,1551764834016,301,-5377.0,-8705.0,9727.0,0.0,0.0,0.0,0.0,0.0,0.0,0
76f897717d325b35,1551764834018,302,-5377.0,-8705.0,9471.0,0.0,0.0,0.0,0.0,0.0,0.0,0
76f897717d325b35,1551764834107,303,-5121.0,-8705.0,9727.0,0.0,0.0,0.0,0.0,0.0,0.0,0
76f897717d325b35,1551764834167,304,-5377.0,-8705.0,9727.0,0.0,0.0,0.0,0.0,0.0,0.0,0
76f897717d325b35,1551764834227,305,-5377.0,-8705.0,9727.0,0.0,0.0,0.0,0.0,0.0,0.0,0
76f897717d325b35,1551764834346,306,-5377.0,-8705.0,9727.0,0.0,0.0,0.0,0.0,0.0,0.0,0
76f897717d325b35,1551764834348,307,-5377.0,-8705.0,9727.0,0.0,0.0,0.0,0.0,0.0,0.0,0
76f897717d325b35,1551764834437,308,-5377.0,-8705.0,9471.0,0.0,0.0,0.0,0.0,0.0,0.0,0
76f897717d325b35,1551764834497,309,-5377.0,-8705.0,9727.0,0.0,0.0,0.0,0.0,0.0,0.0,0
76f897717d325b35,1551764834557,310,-5377.0,-8705.0,9471.0,0.0,0.0,0.0,0.0,0.0,0.0,0
76f897717d325b35,1551764834676,311,-5377.0,-8705.0,9727.0,0.0,0.0,0.0,0.0,0.0,0.0,0
76f897717d325b35,1551764834678,312,-5377.0,-8705.0,9471.0,0.0,0.0,0.0,0.0,0.0,0.0,0
76f897717d325b35,1551764834797,313,-5377.0,-8705.0,9471.0,0.0,0.0,0.0,0.0,0.0,0.0,0
76f897717d325b35,1551764834887,314,-5377.0,-8705.0,9471.0,0.0,0.0,0.0,0.0,0.0,0.0,0
76f897717d325b35,1551764834888,315,-5377.0,-8961.0,9471.0,0.0,0.0,0.0,0.0,0.0,0.0,0
76f897717d325b35,1551764834947,316,-5377.0,-8705.0,9471.0,0.0,0.0,0.0,0.0,0.0,0.0,0
76f897717d325b35,1551764835007,317,-5377.0,-8705.0,9471.0,0.0,0.0,0.0,0.0,0.0,0.0,0
76f897717d325b35,1551764835127,318,-5377.0,-8705.0,9471.0,0.0,0.0,0.0,0.0,0.0,0.0,0
76f897717d325b35,1551764835157,319,-5377.0,-8705.0,9471.0,0.0,0.0,0.0,0.0,0.0,0.0,0
76f897717d325b35,1551764835217,320,-5377.0,-8961.0,9471.0,0.0,0.0,0.0,0.0,0.0,0.0,0
76f897717d325b35,1551764835336,321,-5377.0,-8961.0,9471.0,0.0,0.0,0.0,0.0,0.0,0.0,0
76f897717d325b35,1551764835338,322,-5377.0,-8961.0,9471.0,0.0,0.0,0.0,0.0,0.0,0.0,0
76f897717d325b35,1551764835457,323,-5377.0,-8705.0,9471.0,0.0,0.0,0.0,0.0,0.0,0.0,0
76f897717d325b35,1551764835546,324,-5377.0,-8705.0,9471.0,0.0,0.0,0.0,0.0,0.0,0.0,0
76f897717d325b35,1551764835548,325,-5377.0,-8961.0,9471.0,0.0,0.0,0.0,0.0,0.0,0.0,0
76f897717d325b35,1551764835607,326,-5377.0,-8961.0,9471.0,0.0,0.0,0.0,0.0,0.0,0.0,0
76f897717d325b35,1551764835667,327,-5377.0,-8705.0,9471.0,0.0,0.0,0.0,0.0,0.0,0.0,0
76f897717d325b35,1551764835757,328,-5377.0,-8705.0,9471.0,0.0,0.0,0.0,0.0,0.0,0.0,0
76f897717d325b35,1551764835817,329,-5377.0,-8961.0,9471.0,0.0,0.0,0.0,0.0,0.0,0.0,0
76f897717d325b35,1551764835877,330,-5377.0,-8705.0,9471.0,0.0,0.0,0.0,0.0,0.0,0.0,0
76f897717d325b35,1551764835968,331,-5377.0,-8961.0,9471.0,0.0,0.0,0.0,0.0,0.0,0.0,0
76f897717d325b35,1551764835997,332,-5377.0,-8961.0,9471.0,0.0,0.0,0.0,0.0,0.0,0.0,0
76f897717d325b35,1551764836087,333,-5377.0,-8961.0,9471.0,0.0,0.0,0.0,0.0,0.0,0.0,0
76f897717d325b35,1551764836146,334,-5377.0,-8705.0,9471.0,0.0,0.0,0.0,0.0,0.0,0.0,0
76f897717d325b35,1551764836207,335,-5377.0,-8705.0,9471.0,0.0,0.0,0.0,0.0,0.0,0.0,0
76f897717d325b35,1551764836267,336,-5377.0,-8705.0,9471.0,0.0,0.0,0.0,0.0,0.0,0.0,0
76f897717d325b35,1551764836357,337,-5377.0,-8961.0,9471.0,0.0,0.0,0.0,0.0,0.0,0.0,0
76f897717d325b35,1551764836417,338,-5377.0,-8705.0,9471.0,0.0,0.0,0.0,0.0,0.0,0.0,0
76f897717d325b35,1551764836477,339,-5377.0,-8705.0,9471.0,0.0,0.0,0.0,0.0,0.0,0.0,0
76f897717d325b35,1551764836567,340,-5377.0,-8705.0,9471.0,0.0,0.0,0.0,0.0,0.0,0.0,0
76f897717d325b35,1551764836597,341,-5377.0,-8705.0,9471.0,0.0,0.0,0.0,0.0,0.0,0.0,0
76f897717d325b35,1551764836657,342,-5377.0,-8705.0,9471.0,0.0,0.0,0.0,0.0,0.0,0.0,0
76f897717d325b35,1551764836747,343,-5377.0,-8705.0,9471.0,0.0,0.0,0.0,0.0,0.0,0.0,0
76f897717d325b35,1551764836807,344,-5377.0,-8705.0,9471.0,0.0,0.0,0.0,0.0,0.0,0.0,0
76f897717d325b35,1551764836867,345,-5377.0,-8961.0,9471.0,0.0,0.0,0.0,0.0,0.0,0.0,0
76f897717d325b35,1551764836927,346,-5377.0,-8705.0,9471.0,0.0,0.0,0.0,0.0,0.0,0.0,0
76f897717d325b35,1551764836987,347,-5377.0,-8705.0,9471.0,0.0,0.0,0.0,0.0,0.0,0.0,0
76f897717d325b35,1551764837077,348,-5377.0,-8705.0,9471.0,0.0,0.0,0.0,0.0,0.0,0.0,0
76f897717d325b35,1551764837137,349,-5377.0,-8705.0,9471.0,0.0,0.0,0.0,0.0,0.0,0.0,0
76f897717d325b35,1551764837197,350,-5377.0,-8961.0,9471.0,0.0,0.0,0.0,0.0,0.0,0.0,0
76f897717d325b35,1551764837257,351,-5377.0,-8705.0,9471.0,0.0,0.0,0.0,0.0,0.0,0.0,0
76f897717d325b35,1551764837317,352,-5377.0,-8705.0,9471.0,0.0,0.0,0.0,0.0,0.0,0.0,0
76f897717d325b35,1551764837407,353,-5377.0,-8961.0,9471.0,0.0,0.0,0.0,0.0,0.0,0.0,0
76f897717d325b35,1551764837467,354,-5377.0,-8705.0,9471.0,0.0,0.0,0.0,0.0,0.0,0.0,0
76f897717d325b35,1551764837527,355,-5377.0,-8705.0,9471.0,0.0,0.0,0.0,0.0,0.0,0.0,0
76f897717d325b35,1551764837587,356,-5377.0,-8705.0,9471.0,0.0,0.0,0.0,0.0,0.0,0.0,0
76f897717d325b35,1551764837647,357,-5377.0,-8705.0,9471.0,0.0,0.0,0.0,0.0,0.0,0.0,0
76f897717d325b35,1551764837737,358,-5377.0,-8961.0,9471.0,0.0,0.0,0.0,0.0,0.0,0.0,0
76f897717d325b35,1551764837797,359,-5377.0,-8961.0,9471.0,0.0,0.0,0.0,0.0,0.0,0.0,0
76f897717d325b35,1551764837857,360,-5377.0,-8705.0,9471.0,0.0,0.0,0.0,0.0,0.0,0.0,0
76f897717d325b35,1551764837917,361,-5377.0,-8705.0,9471.0,0.0,0.0,0.0,0.0,0.0,0.0,0
76f897717d325b35,1551764837977,362,-5377.0,-8705.0,9471.0,0.0,0.0,0.0,0.0,0.0,0.0,0
76f897717d325b35,1551764838097,363,-5377.0,-8961.0,9471.0,0.0,0.0,0.0,0.0,0.0,0.0,0
76f897717d325b35,1551764838127,364,-5377.0,-8705.0,9471.0,0.0,0.0,0.0,0.0,0.0,0.0,0
76f897717d325b35,1551764838187,365,-5377.0,-8705.0,9471.0,0.0,0.0,0.0,0.0,0.0,0.0,0
76f897717d325b35,1551764838247,366,-5377.0,-8705.0,9471.0,0.0,0.0,0.0,0.0,0.0,0.0,0
76f897717d325b35,1551764838308,367,-5377.0,-8705.0,9471.0,0.0,0.0,0.0,0.0,0.0,0.0,0
76f897717d325b35,1551764838397,368,-5377.0,-8961.0,9727.0,0.0,0.0,0.0,0.0,0.0,0.0,0
76f897717d325b35,1551764838457,369,-5377.0,-8705.0,9471.0,0.0,0.0,0.0,0.0,0.0,0.0,0
76f897717d325b35,1551764838517,370,-5377.0,-8705.0,9471.0,0.0,0.0,0.0,0.0,0.0,0.0,0
76f897717d325b35,1551764838577,371,-5377.0,-8705.0,9471.0,0.0,0.0,0.0,0.0,0.0,0.0,0
76f897717d325b35,1551764838637,372,-5377.0,-8705.0,9471.0,0.0,0.0,0.0,0.0,0.0,0.0,0
76f897717d325b35,1551764838757,373,-5377.0,-8705.0,9471.0,0.0,0.0,0.0,0.0,0.0,0.0,0
76f897717d325b35,1551764838787,374,-5377.0,-8961.0,9471.0,0.0,0.0,0.0,0.0,0.0,0.0,0
76f897717d325b35,1551764838847,375,-5377.0,-8961.0,9471.0,0.0,0.0,0.0,0.0,0.0,0.0,0
76f897717d325b35,1551764838907,376,-5377.0,-8705.0,9471.0,0.0,0.0,0.0,0.0,0.0,0.0,0
76f897717d325b35,1551764838967,377,-5377.0,-8705.0,9471.0,0.0,0.0,0.0,0.0,0.0,0.0,0
76f897717d325b35,1551764839058,378,-5377.0,-8961.0,9727.0,0.0,0.0,0.0,0.0,0.0,0.0,0
76f897717d325b35,1551764839117,379,-5377.0,-8705.0,9727.0,0.0,0.0,0.0,0.0,0.0,0.0,0
76f897717d325b35,1551764839177,380,-5377.0,-8705.0,9727.0,0.0,0.0,0.0,0.0,0.0,0.0,0
76f897717d325b35,1551764839237,381,-5377.0,-8705.0,9727.0,0.0,0.0,0.0,0.0,0.0,0.0,0
76f897717d325b35,1551764839297,382,-5377.0,-8705.0,9727.0,0.0,0.0,0.0,0.0,0.0,0.0,0
76f897717d325b35,1551764839387,383,-5377.0,-8705.0,9727.0,0.0,0.0,0.0,0.0,0.0,0.0,0
76f897717d325b35,1551764839447,384,-5377.0,-8705.0,9727.0,0.0,0.0,0.0,0.0,0.0,0.0,0
76f897717d325b35,1551764839507,385,-5377.0,-8705.0,9727.0,0.0,0.0,0.0,0.0,0.0,0.0,0
76f897717d325b35,1551764839567,386,-5377.0,-8705.0,9727.0,0.0,0.0,0.0,0.0,0.0,0.0,0
76f897717d325b35,1551764839627,387,-5377.0,-8705.0,9727.0,0.0,0.0,0.0,0.0,0.0,0.0,0
76f897717d325b35,1551764839717,388,-5377.0,-8705.0,9471.0,0.0,0.0,0.0,0.0,0.0,0.0,0
76f897717d325b35,1551764839777,389,-5377.0,-8705.0,9727.0,0.0,0.0,0.0,0.0,0.0,0.0,0
76f897717d325b35,1551764839837,390,-5377.0,-8705.0,9727.0,0.0,0.0,0.0,0.0,0.0,0.0,0
76f897717d325b35,1551764839897,391,-5377.0,-8705.0,9471.0,0.0,0.0,0.0,0.0,0.0,0.0,0
76f897717d325b35,1551764839957,392,-5377.0,-8705.0,9727.0,0.0,0.0,0.0,0.0,0.0,0.0,0
76f897717d325b35,1551764840048,393,-5377.0,-8705.0,9727.0,0.0,0.0,0.0,0.0,0.0,0.0,0
76f897717d325b35,1551764840108,394,-5377.0,-8705.0,9471.0,0.0,0.0,0.0,0.0,0.0,0.0,0
76f897717d325b35,1551764840167,395,-5377.0,-8705.0,9471.0,0.0,0.0,0.0,0.0,0.0,0.0,0
76f897717d325b35,1551764840258,396,-5377.0,-8705.0,9727.0,0.0,0.0,0.0,0.0,0.0,0.0,0
76f897717d325b35,1551764840287,397,-5377.0,-8705.0,9727.0,0.0,0.0,0.0,0.0,0.0,0.0,0
76f897717d325b35,1551764840377,398,-5377.0,-8705.0,9727.0,0.0,0.0,0.0,0.0,0.0,0.0,0
76f897717d325b35,1551764840467,399,-5377.0,-8705.0,9727.0,0.0,0.0,0.0,0.0,0.0,0.0,0
76f897717d325b35,1551764840497,400,-5377.0,-8705.0,9727.0,0.0,0.0,0.0,0.0,0.0,0.0,0
76f897717d325b35,1551764840557,401,-5377.0,-8705.0,9471.0,0.0,0.0,0.0,0.0,0.0,0.0,0
76f897717d325b35,1551764840617,402,-5377.0,-8705.0,9471.0,0.0,0.0,0.0,0.0,0.0,0.0,0
76f897717d325b35,1551764840708,403,-5377.0,-8705.0,9727.0,0.0,0.0,0.0,0.0,0.0,0.0,0
76f897717d325b35,1551764840767,404,-5377.0,-8705.0,9727.0,0.0,0.0,0.0,0.0,0.0,0.0,0
76f897717d325b35,1551764840827,405,-5377.0,-8961.0,9727.0,0.0,0.0,0.0,0.0,0.0,0.0,0
76f897717d325b35,1551764840887,406,-5377.0,-8705.0,9727.0,0.0,0.0,0.0,0.0,0.0,0.0,0
76f897717d325b35,1551764840977,407,-5377.0,-8705.0,9727.0,0.0,0.0,0.0,0.0,0.0,0.0,0
76f897717d325b35,1551764841067,408,-5377.0,-8705.0,9727.0,0.0,0.0,0.0,0.0,0.0,0.0,0
76f897717d325b35,1551764841097,409,-5377.0,-8705.0,9727.0,0.0,0.0,0.0,0.0,0.0,0.0,0
76f897717d325b35,1551764841157,410,-5377.0,-8705.0,9727.0,0.0,0.0,0.0,0.0,0.0,0.0,0
76f897717d325b35,1551764841217,411,-5377.0,-8705.0,9727.0,0.0,0.0,0.0,0.0,0.0,0.0,0
76f897717d325b35,1551764841276,412,-5377.0,-8705.0,9727.0,0.0,0.0,0.0,0.0,0.0,0.0,0
76f897717d325b35,1551764841367,413,-5377.0,-8705.0,9727.0,0.0,0.0,0.0,0.0,0.0,0.0,0
76f897717d325b35,1551764841427,414,-5377.0,-8705.0,9727.0,0.0,0.0,0.0,0.0,0.0,0.0,0
76f897717d325b35,1551764841487,415,-5377.0,-8705.0,9471.0,0.0,0.0,0.0,0.0,0.0,0.0,0
76f897717d325b35,1551764841577,416,-5377.0,-8705.0,9471.0,0.0,0.0,0.0,0.0,0.0,0.0,0
76f897717d325b35,1551764841607,417,-5377.0,-8705.0,9471.0,0.0,0.0,0.0,0.0,0.0,0.0,0
76f897717d325b35,1551764841697,418,-5377.0,-8961.0,9727.0,0.0,0.0,0.0,0.0,0.0,0.0,0
76f897717d325b35,1551764841787,419,-5377.0,-8705.0,9727.0,0.0,0.0,0.0,0.0,0.0,0.0,0
76f897717d325b35,1551764841817,420,-5377.0,-8705.0,9471.0,0.0,0.0,0.0,0.0,0.0,0.0,0
76f897717d325b35,1551764841877,421,-5377.0,-8705.0,9727.0,0.0,0.0,0.0,0.0,0.0,0.0,0
76f897717d325b35,1551764841937,422,-5377.0,-8705.0,9471.0,0.0,0.0,0.0,0.0,0.0,0.0,0
76f897717d325b35,1551764842027,423,-5377.0,-8705.0,9471.0,0.0,0.0,0.0,0.0,0.0,0.0,0
76f897717d325b35,1551764842087,424,-5377.0,-8705.0,9471.0,0.0,0.0,0.0,0.0,0.0,0.0,0
76f897717d325b35,1551764842147,425,-5377.0,-8705.0,9471.0,0.0,0.0,0.0,0.0,0.0,0.0,0
76f897717d325b35,1551764842207,426,-5377.0,-8705.0,9471.0,0.0,0.0,0.0,0.0,0.0,0.0,0
76f897717d325b35,1551764842267,427,-5377.0,-8961.0,9471.0,0.0,0.0,0.0,0.0,0.0,0.0,0
76f897717d325b35,1551764842357,428,-5377.0,-8705.0,9471.0,0.0,0.0,0.0,0.0,0.0,0.0,0
76f897717d325b35,1551764842417,429,-5377.0,-8705.0,9471.0,0.0,0.0,0.0,0.0,0.0,0.0,0
76f897717d325b35,1551764842477,430,-5377.0,-8705.0,9727.0,0.0,0.0,0.0,0.0,0.0,0.0,0
76f897717d325b35,1551764842537,431,-5377.0,-8705.0,9471.0,0.0,0.0,0.0,0.0,0.0,0.0,0
76f897717d325b35,1551764842597,432,-5377.0,-8705.0,9471.0,0.0,0.0,0.0,0.0,0.0,0.0,0
76f897717d325b35,1551764842687,433,-5377.0,-8705.0,9471.0,0.0,0.0,0.0,0.0,0.0,0.0,0
76f897717d325b35,1551764842747,434,-5377.0,-8705.0,9727.0,0.0,0.0,0.0,0.0,0.0,0.0,0
76f897717d325b35,1551764842837,435,-5377.0,-8705.0,9471.0,0.0,0.0,0.0,0.0,0.0,0.0,0
76f897717d325b35,1551764842867,436,-5377.0,-8961.0,9471.0,0.0,0.0,0.0,0.0,0.0,0.0,0
76f897717d325b35,1551764842927,437,-5377.0,-8705.0,9471.0,0.0,0.0,0.0,0.0,0.0,0.0,0
76f897717d325b35,1551764843016,438,-5377.0,-8961.0,9471.0,0.0,0.0,0.0,0.0,0.0,0.0,0
76f897717d325b35,1551764843077,439,-5377.0,-8705.0,9471.0,0.0,0.0,0.0,0.0,0.0,0.0,0
76f897717d325b35,1551764843136,440,-5377.0,-8705.0,9727.0,0.0,0.0,0.0,0.0,0.0,0.0,0
76f897717d325b35,1551764843197,441,-5377.0,-8705.0,9727.0,0.0,0.0,0.0,0.0,0.0,0.0,0
76f897717d325b35,1551764843257,442,-5377.0,-8705.0,9471.0,0.0,0.0,0.0,0.0,0.0,0.0,0
76f897717d325b35,1551764843347,443,-5377.0,-8705.0,9727.0,0.0,0.0,0.0,0.0,0.0,0.0,0
76f897717d325b35,1551764843437,444,-5377.0,-8705.0,9727.0,0.0,0.0,0.0,0.0,0.0,0.0,0
76f897717d325b35,1551764843467,445,-5377.0,-8705.0,9727.0,0.0,0.0,0.0,0.0,0.0,0.0,0
76f897717d325b35,1551764843527,446,-5377.0,-8961.0,9727.0,0.0,0.0,0.0,0.0,0.0,0.0,0
76f897717d325b35,1551764843587,447,-5377.0,-8705.0,9471.0,0.0,0.0,0.0,0.0,0.0,0.0,0
76f897717d325b35,1551764843677,448,-5377.0,-8705.0,9471.0,0.0,0.0,0.0,0.0,0.0,0.0,0
76f897717d325b35,1551764843767,449,-5377.0,-8961.0,9471.0,0.0,0.0,0.0,0.0,0.0,0.0,0
76f897717d325b35,1551764843797,450,-5377.0,-8705.0,9727.0,0.0,0.0,0.0,0.0,0.0,0.0,0
76f897717d325b35,1551764843857,451,-5377.0,-8705.0,9471.0,0.0,0.0,0.0,0.0,0.0,0.0,0
76f897717d325b35,1551764843917,452,-5377.0,-8705.0,9727.0,0.0,0.0,0.0,0.0,0.0,0.0,0
76f897717d325b35,1551764844007,453,-5377.0,-8705.0,9471.0,0.0,0.0,0.0,0.0,0.0,0.0,0
76f897717d325b35,1551764844067,454,-5377.0,-8705.0,9471.0,0.0,0.0,0.0,0.0,0.0,0.0,0
76f897717d325b35,1551764844127,455,-5377.0,-8705.0,9727.0,0.0,0.0,0.0,0.0,0.0,0.0,0
76f897717d325b35,1551764844186,456,-5377.0,-8705.0,9471.0,0.0,0.0,0.0,0.0,0.0,0.0,0
76f897717d325b35,1551764844247,457,-5377.0,-8705.0,9471.0,0.0,0.0,0.0,0.0,0.0,0.0,0
76f897717d325b35,1551764844337,458,-5377.0,-8705.0,9727.0,0.0,0.0,0.0,0.0,0.0,0.0,0
76f897717d325b35,1551764844397,459,-5377.0,-8705.0,9727.0,0.0,0.0,0.0,0.0,0.0,0.0,0
76f897717d325b35,1551764844457,460,-5377.0,-8705.0,9727.0,0.0,0.0,0.0,0.0,0.0,0.0,0
76f897717d325b35,1551764844547,461,-5377.0,-8705.0,9727.0,0.0,0.0,0.0,0.0,0.0,0.0,0
76f897717d325b35,1551764844577,462,-5377.0,-8705.0,9727.0,0.0,0.0,0.0,0.0,0.0,0.0,0
76f897717d325b35,1551764844667,463,-5377.0,-8705.0,9727.0,0.0,0.0,0.0,0.0,0.0,0.0,0
76f897717d325b35,1551764844757,464,-5377.0,-8705.0,9727.0,0.0,0.0,0.0,0.0,0.0,0.0,0
76f897717d325b35,1551764844787,465,-5377.0,-8705.0,9727.0,0.0,0.0,0.0,0.0,0.0,0.0,0
76f897717d325b35,1551764844847,466,-5377.0,-8705.0,9727.0,0.0,0.0,0.0,0.0,0.0,0.0,0
76f897717d325b35,1551764844907,467,-5377.0,-8705.0,9727.0,0.0,0.0,0.0,0.0,0.0,0.0,0
76f897717d325b35,1551764844997,468,-5377.0,-8705.0,9727.0,0.0,0.0,0.0,0.0,0.0,0.0,0
76f897717d325b35,1551764845057,469,-5377.0,-8705.0,9727.0,0.0,0.0,0.0,0.0,0.0,0.0,0
76f897717d325b35,1551764845117,470,-5377.0,-8705.0,9727.0,0.0,0.0,0.0,0.0,0.0,0.0,0
76f897717d325b35,1551764845177,471,-5377.0,-8961.0,9727.0,0.0,0.0,0.0,0.0,0.0,0.0,0
76f897717d325b35,1551764845237,472,-5377.0,-8705.0,9727.0,0.0,0.0,0.0,0.0,0.0,0.0,0
76f897717d325b35,1551764845327,473,-5377.0,-8705.0,9727.0,0.0,0.0,0.0,0.0,0.0,0.0,0
76f897717d325b35,1551764845387,474,-5377.0,-8705.0,9727.0,0.0,0.0,0.0,0.0,0.0,0.0,0
76f897717d325b35,1551764845447,475,-5377.0,-8705.0,9727.0,0.0,0.0,0.0,0.0,0.0,0.0,0
76f897717d325b35,1551764845507,476,-5377.0,-8705.0,9727.0,0.0,0.0,0.0,0.0,0.0,0.0,0
76f897717d325b35,1551764845567,477,-5377.0,-8705.0,9471.0,0.0,0.0,0.0,0.0,0.0,0.0,0
76f897717d325b35,1551764845657,478,-5377.0,-8705.0,9471.0,0.0,0.0,0.0,0.0,0.0,0.0,0
76f897717d325b35,1551764845717,479,-5377.0,-8705.0,9727.0,0.0,0.0,0.0,0.0,0.0,0.0,0
76f897717d325b35,1551764845777,480,-5377.0,-8705.0,9727.0,0.0,0.0,0.0,0.0,0.0,0.0,0
76f897717d325b35,1551764845867,481,-5377.0,-8961.0,9471.0,0.0,0.0,0.0,0.0,0.0,0.0,0
76f897717d325b35,1551764845897,482,-5377.0,-8705.0,9727.0,0.0,0.0,0.0,0.0,0.0,0.0,0
76f897717d325b35,1551764845987,483,-5377.0,-8961.0,9471.0,0.0,0.0,0.0,0.0,0.0,0.0,0
76f897717d325b35,1551764846047,484,-5377.0,-8705.0,9727.0,0.0,0.0,0.0,0.0,0.0,0.0,0
76f897717d325b35,1551764846107,485,-5377.0,-8705.0,9727.0,0.0,0.0,0.0,0.0,0.0,0.0,0
76f897717d325b35,1551764846167,486,-5377.0,-8705.0,9727.0,0.0,0.0,0.0,0.0,0.0,0.0,0
76f897717d325b35,1551764846227,487,-5377.0,-8961.0,9471.0,0.0,0.0,0.0,0.0,0.0,0.0,0
76f897717d325b35,1551764846317,488,-5377.0,-8705.0,9471.0,0.0,0.0,0.0,0.0,0.0,0.0,0
76f897717d325b35,1551764846377,489,-5377.0,-8961.0,9727.0,0.0,0.0,0.0,0.0,0.0,0.0,0
76f897717d325b35,1551764846436,490,-5377.0,-8705.0,9727.0,0.0,0.0,0.0,0.0,0.0,0.0,0
76f897717d325b35,1551764846497,491,-5377.0,-8705.0,9471.0,0.0,0.0,0.0,0.0,0.0,0.0,0
76f897717d325b35,1551764846557,492,-5377.0,-8705.0,9471.0,0.0,0.0,0.0,0.0,0.0,0.0,0
76f897717d325b35,1551764846647,493,-5377.0,-8705.0,9471.0,0.0,0.0,0.0,0.0,0.0,0.0,0
76f897717d325b35,1551764846707,494,-5377.0,-8705.0,9471.0,0.0,0.0,0.0,0.0,0.0,0.0,0
76f897717d325b35,1551764846767,495,-5377.0,-8705.0,9471.0,0.0,0.0,0.0,0.0,0.0,0.0,0
76f897717d325b35,1551764846827,496,-5377.0,-8705.0,9471.0,0.0,0.0,0.0,0.0,0.0,0.0,0
76f897717d325b35,1551764846887,497,-5377.0,-8705.0,9727.0,0.0,0.0,0.0,0.0,0.0,0.0,0
76f897717d325b35,1551764846977,498,-5377.0,-8705.0,9727.0,0.0,0.0,0.0,0.0,0.0,0.0,0
76f897717d325b35,1551764847036,499,-5377.0,-8705.0,9727.0,0.0,0.0,0.0,0.0,0.0,0.0,0
76f897717d325b35,1551764847097,500,-5377.0,-8961.0,9727.0,0.0,0.0,0.0,0.0,0.0,0.0,0
76f897717d325b35,1551764847157,501,-5377.0,-8705.0,9727.0,0.0,0.0,0.0,0.0,0.0,0.0,0
76f897717d325b35,1551764847217,502,-5377.0,-8705.0,9727.0,0.0,0.0,0.0,0.0,0.0,0.0,0
76f897717d325b35,1551764847307,503,-5377.0,-8705.0,9727.0,0.0,0.0,0.0,0.0,0.0,0.0,0
76f897717d325b35,1551764847367,504,-5377.0,-8705.0,9727.0,0.0,0.0,0.0,0.0,0.0,0.0,0
76f897717d325b35,1551764847427,505,-5377.0,-8705.0,9727.0,0.0,0.0,0.0,0.0,0.0,0.0,0
76f897717d325b35,1551764847517,506,-5377.0,-8705.0,9727.0,0.0,0.0,0.0,0.0,0.0,0.0,0
76f897717d325b35,1551764847547,507,-5377.0,-8705.0,9727.0,0.0,0.0,0.0,0.0,0.0,0.0,0
76f897717d325b35,1551764847637,508,-5377.0,-8705.0,9727.0,0.0,0.0,0.0,0.0,0.0,0.0,0
76f897717d325b35,1551764847697,509,-5377.0,-8705.0,9727.0,0.0,0.0,0.0,0.0,0.0,0.0,0
76f897717d325b35,1551764847757,510,-5377.0,-8705.0,9471.0,0.0,0.0,0.0,0.0,0.0,0.0,0
76f897717d325b35,1551764847817,511,-5377.0,-8705.0,9727.0,0.0,0.0,0.0,0.0,0.0,0.0,0
76f897717d325b35,1551764847877,512,-5377.0,-8705.0,9727.0,0.0,0.0,0.0,0.0,0.0,0.0,0
76f897717d325b35,1551764847967,513,-5377.0,-8705.0,9471.0,0.0,0.0,0.0,0.0,0.0,0.0,0
76f897717d325b35,1551764848027,514,-5377.0,-8705.0,9471.0,0.0,0.0,0.0,0.0,0.0,0.0,0
76f897717d325b35,1551764848087,515,-5377.0,-8705.0,9727.0,0.0,0.0,0.0,0.0,0.0,0.0,0
76f897717d325b35,1551764848147,516,-5377.0,-8705.0,9471.0,0.0,0.0,0.0,0.0,0.0,0.0,0
76f897717d325b35,1551764848237,517,-5377.0,-8705.0,9471.0,0.0,0.0,0.0,0.0,0.0,0.0,0
76f897717d325b35,1551764848297,518,-5377.0,-8705.0,9727.0,0.0,0.0,0.0,0.0,0.0,0.0,0
76f897717d325b35,1551764848357,519,-5377.0,-8705.0,9471.0,0.0,0.0,0.0,0.0,0.0,0.0,0
76f897717d325b35,1551764848417,520,-5377.0,-8705.0,9727.0,0.0,0.0,0.0,0.0,0.0,0.0,0
76f897717d325b35,1551764848477,521,-5377.0,-8705.0,9471.0,0.0,0.0,0.0,0.0,0.0,0.0,0
76f897717d325b35,1551764848537,522,-5377.0,-8705.0,9471.0,0.0,0.0,0.0,0.0,0.0,0.0,0
76f897717d325b35,1551764848627,523,-5377.0,-8961.0,9727.0,0.0,0.0,0.0,0.0,0.0,0.0,0
76f897717d325b35,1551764848687,524,-5377.0,-8705.0,9727.0,0.0,0.0,0.0,0.0,0.0,0.0,0
76f897717d325b35,1551764848747,525,-5377.0,-8961.0,9727.0,0.0,0.0,0.0,0.0,0.0,0.0,0
76f897717d325b35,1551764848807,526,-5377.0,-8705.0,9727.0,0.0,0.0,0.0,0.0,0.0,0.0,0
76f897717d325b35,1551764848867,527,-5377.0,-8705.0,9727.0,0.0,0.0,0.0,0.0,0.0,0.0,0
76f897717d325b35,1551764848957,528,-5377.0,-8705.0,9727.0,0.0,0.0,0.0,0.0,0.0,0.0,0
76f897717d325b35,1551764849017,529,-5377.0,-8705.0,9727.0,0.0,0.0,0.0,0.0,0.0,0.0,0
76f897717d325b35,1551764849077,530,-5377.0,-8705.0,9727.0,0.0,0.0,0.0,0.0,0.0,0.0,0
76f897717d325b35,1551764849136,531,-5377.0,-8705.0,9727.0,0.0,0.0,0.0,0.0,0.0,0.0,0
76f897717d325b35,1551764849197,532,-5377.0,-8705.0,9471.0,0.0,0.0,0.0,0.0,0.0,0.0,0
76f897717d325b35,1551764849287,533,-5377.0,-8705.0,9727.0,0.0,0.0,0.0,0.0,0.0,0.0,0
76f897717d325b35,1551764849347,534,-5377.0,-8705.0,9727.0,0.0,0.0,0.0,0.0,0.0,0.0,0
76f897717d325b35,1551764849407,535,-5377.0,-8705.0,9727.0,0.0,0.0,0.0,0.0,0.0,0.0,0
76f897717d325b35,1551764849467,536,-5377.0,-8705.0,9471.0,0.0,0.0,0.0,0.0,0.0,0.0,0
76f897717d325b35,1551764849527,537,-5377.0,-8705.0,9727.0,0.0,0.0,0.0,0.0,0.0,0.0,0
76f897717d325b35,1551764849617,538,-5377.0,-8705.0,9727.0,0.0,0.0,0.0,0.0,0.0,0.0,0
76f897717d325b35,1551764849677,539,-5377.0,-8705.0,9727.0,0.0,0.0,0.0,0.0,0.0,0.0,0
76f897717d325b35,1551764849736,540,-5377.0,-8705.0,9727.0,0.0,0.0,0.0,0.0,0.0,0.0,0
76f897717d325b35,1551764849797,541,-5377.0,-8705.0,9727.0,0.0,0.0,0.0,0.0,0.0,0.0,0
76f897717d325b35,1551764849857,542,-5377.0,-8705.0,9727.0,0.0,0.0,0.0,0.0,0.0,0.0,0
76f897717d325b35,1551764849977,543,-5377.0,-8705.0,9471.0,0.0,0.0,0.0,0.0,0.0,0.0,0
76f897717d325b35,1551764850007,544,-5377.0,-8705.0,9727.0,0.0,0.0,0.0,0.0,0.0,0.0,0
76f897717d325b35,1551764850067,545,-5377.0,-8705.0,9471.0,0.0,0.0,0.0,0.0,0.0,0.0,0
76f897717d325b35,1551764850127,546,-5377.0,-8705.0,9727.0,0.0,0.0,0.0,0.0,0.0,0.0,0
76f897717d325b35,1551764850187,547,-5377.0,-8705.0,9727.0,0.0,0.0,0.0,0.0,0.0,0.0,0
76f897717d325b35,1551764850277,548,-5377.0,-8705.0,9727.0,0.0,0.0,0.0,0.0,0.0,0.0,0
76f897717d325b35,1551764850336,549,-5377.0,-8705.0,9727.0,0.0,0.0,0.0,0.0,0.0,0.0,0
76f897717d325b35,1551764850397,550,-5377.0,-8705.0,9471.0,0.0,0.0,0.0,0.0,0.0,0.0,0
76f897717d325b35,1551764850457,551,-5377.0,-8705.0,9727.0,0.0,0.0,0.0,0.0,0.0,0.0,0
76f897717d325b35,1551764850517,552,-5377.0,-8705.0,9727.0,0.0,0.0,0.0,0.0,0.0,0.0,0
76f897717d325b35,1551764850726,553,-5377.0,-8705.0,9727.0,0.0,0.0,0.0,0.0,0.0,0.0,0
76f897717d325b35,1551764850727,554,-5377.0,-8705.0,9727.0,0.0,0.0,0.0,0.0,0.0,0.0,0
76f897717d325b35,1551764850728,555,-5377.0,-8705.0,9727.0,0.0,0.0,0.0,0.0,0.0,0.0,0
76f897717d325b35,1551764851086,556,-5377.0,-8705.0,9727.0,0.0,0.0,0.0,0.0,0.0,0.0,0
76f897717d325b35,1551764851146,557,-5377.0,-8705.0,9727.0,0.0,0.0,0.0,0.0,0.0,0.0,0
76f897717d325b35,1551764851148,558,-5377.0,-8705.0,9727.0,0.0,0.0,0.0,0.0,0.0,0.0,0
76f897717d325b35,1551764851149,559,-5377.0,-8705.0,9727.0,0.0,0.0,0.0,0.0,0.0,0.0,0
76f897717d325b35,1551764851150,560,-5377.0,-8705.0,9727.0,0.0,0.0,0.0,0.0,0.0,0.0,0
76f897717d325b35,1551764851151,561,-5377.0,-8705.0,9727.0,0.0,0.0,0.0,0.0,0.0,0.0,0
76f897717d325b35,1551764851177,562,-5377.0,-8705.0,9727.0,0.0,0.0,0.0,0.0,0.0,0.0,0
76f897717d325b35,1551764851267,563,-5377.0,-8705.0,9727.0,0.0,0.0,0.0,0.0,0.0,0.0,0
76f897717d325b35,1551764851327,564,-5377.0,-8705.0,9727.0,0.0,0.0,0.0,0.0,0.0,0.0,0
76f897717d325b35,1551764851417,565,-5377.0,-8705.0,9727.0,0.0,0.0,0.0,0.0,0.0,0.0,0
76f897717d325b35,1551764851447,566,-5377.0,-8961.0,9727.0,0.0,0.0,0.0,0.0,0.0,0.0,0
76f897717d325b35,1551764851507,567,-5377.0,-8705.0,9727.0,0.0,0.0,0.0,0.0,0.0,0.0,0
76f897717d325b35,1551764851597,568,-5377.0,-8705.0,9727.0,0.0,0.0,0.0,0.0,0.0,0.0,0
76f897717d325b35,1551764851657,569,-5377.0,-8705.0,9727.0,0.0,0.0,0.0,0.0,0.0,0.0,0
76f897717d325b35,1551764851747,570,-5377.0,-8705.0,9727.0,0.0,0.0,0.0,0.0,0.0,0.0,0
76f897717d325b35,1551764851777,571,-5377.0,-8705.0,9727.0,0.0,0.0,0.0,0.0,0.0,0.0,0
76f897717d325b35,1551764851837,572,-5377.0,-8705.0,9727.0,0.0,0.0,0.0,0.0,0.0,0.0,0
76f897717d325b35,1551764851926,573,-5377.0,-8705.0,9727.0,0.0,0.0,0.0,0.0,0.0,0.0,0
76f897717d325b35,1551764851987,574,-5377.0,-8705.0,9727.0,0.0,0.0,0.0,0.0,0.0,0.0,0
76f897717d325b35,1551764852046,575,-5377.0,-8705.0,9727.0,0.0,0.0,0.0,0.0,0.0,0.0,0
76f897717d325b35,1551764852107,576,-5377.0,-8705.0,9727.0,0.0,0.0,0.0,0.0,0.0,0.0,0
76f897717d325b35,1551764852167,577,-5377.0,-8705.0,9727.0,0.0,0.0,0.0,0.0,0.0,0.0,0
76f897717d325b35,1551764852287,578,-5377.0,-8705.0,9727.0,0.0,0.0,0.0,0.0,0.0,0.0,0
76f897717d325b35,1551764852347,579,-5633.0,-8961.0,9983.0,0.0,0.0,0.0,0.0,0.0,0.0,0
76f897717d325b35,1551764852407,580,-5377.0,-8705.0,9727.0,0.0,0.0,0.0,0.0,0.0,0.0,0
76f897717d325b35,1551764852436,581,-5633.0,-8705.0,9727.0,0.0,0.0,0.0,0.0,0.0,0.0,0
76f897717d325b35,1551764852497,582,-5633.0,-8705.0,9727.0,0.0,0.0,0.0,0.0,0.0,0.0,0
76f897717d325b35,1551764852587,583,-5377.0,-8705.0,9983.0,0.0,0.0,0.0,0.0,0.0,0.0,0
76f897717d325b35,1551764852647,584,-5633.0,-8705.0,9727.0,0.0,0.0,0.0,0.0,0.0,0.0,0
76f897717d325b35,1551764852707,585,-5633.0,-8705.0,9983.0,0.0,0.0,0.0,0.0,0.0,0.0,0
76f897717d325b35,1551764852767,586,-5633.0,-9217.0,9727.0,0.0,0.0,0.0,0.0,0.0,0.0,0
76f897717d325b35,1551764852827,587,-5377.0,-8193.0,9727.0,0.0,0.0,0.0,0.0,0.0,0.0,0
76f897717d325b35,1551764852916,588,-5633.0,-8705.0,9727.0,0.0,0.0,0.0,0.0,0.0,0.0,0
76f897717d325b35,1551764852977,589,-6145.0,-8961.0,9983.0,0.0,0.0,0.0,0.0,0.0,0.0,0
76f897717d325b35,1551764853036,590,-5633.0,-8705.0,9983.0,0.0,0.0,0.0,0.0,0.0,0.0,0
76f897717d325b35,1551764853097,591,-5377.0,-8705.0,9727.0,0.0,0.0,0.0,0.0,0.0,0.0,0
76f897717d325b35,1551764853186,592,-6145.0,-9217.0,9983.0,0.0,0.0,0.0,0.0,0.0,0.0,0
76f897717d325b35,1551764853247,593,-5377.0,-8449.0,9983.0,0.0,0.0,0.0,0.0,0.0,0.0,0
76f897717d325b35,1551764853307,594,-5633.0,-8705.0,9727.0,0.0,0.0,0.0,0.0,0.0,0.0,0
76f897717d325b35,1551764853367,595,-6145.0,-9217.0,9983.0,0.0,0.0,0.0,0.0,0.0,0.0,0
76f897717d325b35,1551764853427,596,-5633.0,-8449.0,9983.0,0.0,0.0,0.0,0.0,0.0,0.0,0
76f897717d325b35,1551764853486,597,-5633.0,-8705.0,9727.0,0.0,0.0,0.0,0.0,0.0,0.0,0
76f897717d325b35,1551764853576,598,-5889.0,-8961.0,9983.0,0.0,0.0,0.0,0.0,0.0,0.0,0
76f897717d325b35,1551764853636,599,-5633.0,-8705.0,9727.0,0.0,0.0,0.0,0.0,0.0,0.0,0
76f897717d325b35,1551764853697,600,-5633.0,-8705.0,9727.0,0.0,0.0,0.0,0.0,0.0,0.0,0
76f897717d325b35,1551764853757,601,-3841.0,-8705.0,9983.0,0.0,0.0,0.0,0.0,0.0,0.0,0
76f897717d325b35,1551764853817,602,-5633.0,-8961.0,9727.0,0.0,0.0,0.0,0.0,0.0,0.0,0
76f897717d325b35,1551764853907,603,-5377.0,-8705.0,9727.0,0.0,0.0,0.0,0.0,0.0,0.0,0
76f897717d325b35,1551764853967,604,-5377.0,-8705.0,9727.0,0.0,0.0,0.0,0.0,0.0,0.0,0
76f897717d325b35,1551764854027,605,-5633.0,-8705.0,9727.0,0.0,0.0,0.0,0.0,0.0,0.0,0
76f897717d325b35,1551764854087,606,-5633.0,-8961.0,9471.0,0.0,0.0,0.0,0.0,0.0,0.0,0
76f897717d325b35,1551764854146,607,-5377.0,-8705.0,9727.0,0.0,0.0,0.0,0.0,0.0,0.0,0
76f897717d325b35,1551764854236,608,-5377.0,-8705.0,9727.0,0.0,0.0,0.0,0.0,0.0,0.0,0
76f897717d325b35,1551764854296,609,-5377.0,-8705.0,9471.0,0.0,0.0,0.0,0.0,0.0,0.0,0
76f897717d325b35,1551764854357,610,-5377.0,-8705.0,9727.0,0.0,0.0,0.0,0.0,0.0,0.0,0
76f897717d325b35,1551764854416,611,-5377.0,-8705.0,9727.0,0.0,0.0,0.0,0.0,0.0,0.0,0
76f897717d325b35,1551764854477,612,-5377.0,-8705.0,9471.0,0.0,0.0,0.0,0.0,0.0,0.0,0
76f897717d325b35,1551764854567,613,-5377.0,-8705.0,9727.0,0.0,0.0,0.0,0.0,0.0,0.0,0
76f897717d325b35,1551764854627,614,-5889.0,-8961.0,9983.0,0.0,0.0,0.0,0.0,0.0,0.0,0
76f897717d325b35,1551764854686,615,-5377.0,-8705.0,9983.0,0.0,0.0,0.0,0.0,0.0,0.0,0
76f897717d325b35,1551764854747,616,-5377.0,-8449.0,9727.0,0.0,0.0,0.0,0.0,0.0,0.0,0
76f897717d325b35,1551764854807,617,-5633.0,-8705.0,9727.0,0.0,0.0,0.0,0.0,0.0,0.0,0
76f897717d325b35,1551764854897,618,-5633.0,-8961.0,9727.0,0.0,0.0,0.0,0.0,0.0,0.0,0
76f897717d325b35,1551764854957,619,-5377.0,-8449.0,9983.0,0.0,0.0,0.0,0.0,0.0,0.0,0
76f897717d325b35,1551764855017,620,-5633.0,-8705.0,9983.0,0.0,0.0,0.0,0.0,0.0,0.0,0
76f897717d325b35,1551764855077,621,-5377.0,-8961.0,9727.0,0.0,0.0,0.0,0.0,0.0,0.0,0
76f897717d325b35,1551764855136,622,-5633.0,-8705.0,9727.0,0.0,0.0,0.0,0.0,0.0,0.0,0
76f897717d325b35,1551764855227,623,-5377.0,-8705.0,9727.0,0.0,0.0,0.0,0.0,0.0,0.0,0
76f897717d325b35,1551764855287,624,-5377.0,-8705.0,9727.0,0.0,0.0,0.0,0.0,0.0,0.0,0
76f897717d325b35,1551764855347,625,-5377.0,-8961.0,9727.0,0.0,0.0,0.0,0.0,0.0,0.0,0
76f897717d325b35,1551764855407,626,-5377.0,-8961.0,9727.0,0.0,0.0,0.0,0.0,0.0,0.0,0
76f897717d325b35,1551764855467,627,-5377.0,-8705.0,9727.0,0.0,0.0,0.0,0.0,0.0,0.0,0
76f897717d325b35,1551764855557,628,-5377.0,-8705.0,9727.0,0.0,0.0,0.0,0.0,0.0,0.0,0
76f897717d325b35,1551764855617,629,-5377.0,-8705.0,9727.0,0.0,0.0,0.0,0.0,0.0,0.0,0
76f897717d325b35,1551764855676,630,-5377.0,-8705.0,9727.0,0.0,0.0,0.0,0.0,0.0,0.0,0
76f897717d325b35,1551764855736,631,-5377.0,-8705.0,9727.0,0.0,0.0,0.0,0.0,0.0,0.0,0
76f897717d325b35,1551764855796,632,-5377.0,-8705.0,9727.0,0.0,0.0,0.0,0.0,0.0,0.0,0
76f897717d325b35,1551764855917,633,-5377.0,-8705.0,9727.0,0.0,0.0,0.0,0.0,0.0,0.0,0
76f897717d325b35,1551764855947,634,-5377.0,-8705.0,9727.0,0.0,0.0,0.0,0.0,0.0,0.0,0
76f897717d325b35,1551764856007,635,-5377.0,-8705.0,9727.0,0.0,0.0,0.0,0.0,0.0,0.0,0
76f897717d325b35,1551764856067,636,-5377.0,-8705.0,9727.0,0.0,0.0,0.0,0.0,0.0,0.0,0
76f897717d325b35,1551764856156,637,-5121.0,-8705.0,9983.0,0.0,0.0,0.0,0.0,0.0,0.0,0
76f897717d325b35,1551764856217,638,-5121.0,-8705.0,9983.0,0.0,0.0,0.0,0.0,0.0,0.0,0
76f897717d325b35,1551764856306,639,-5633.0,-8705.0,9983.0,0.0,0.0,0.0,0.0,0.0,0.0,0
76f897717d325b35,1551764856367,640,-5121.0,-8449.0,9983.0,0.0,0.0,0.0,0.0,0.0,0.0,0
76f897717d325b35,1551764856426,641,-4865.0,-8961.0,9727.0,0.0,0.0,0.0,0.0,0.0,0.0,0
76f897717d325b35,1551764856487,642,-5121.0,-8705.0,9983.0,0.0,0.0,0.0,0.0,0.0,0.0,0
76f897717d325b35,1551764856546,643,-5121.0,-8705.0,9727.0,0.0,0.0,0.0,0.0,0.0,0.0,0
76f897717d325b35,1551764856636,644,-5121.0,-8961.0,9727.0,0.0,0.0,0.0,0.0,0.0,0.0,0
76f897717d325b35,1551764856667,645,-5121.0,-8705.0,9727.0,0.0,0.0,0.0,0.0,0.0,0.0,0
76f897717d325b35,1551764856727,646,-5377.0,-8705.0,9727.0,0.0,0.0,0.0,0.0,0.0,0.0,0
76f897717d325b35,1551764856816,647,-4865.0,-8705.0,9983.0,0.0,0.0,0.0,0.0,0.0,0.0,0
76f897717d325b35,1551764857026,648,-5121.0,-8705.0,9983.0,0.0,0.0,0.0,0.0,0.0,0.0,0
76f897717d325b35,1551764857027,649,-4865.0,-8449.0,10239.0,0.0,0.0,0.0,0.0,0.0,0.0,0
76f897717d325b35,1551764857028,650,-4609.0,-8705.0,10239.0,0.0,0.0,0.0,0.0,0.0,0.0,0
76f897717d325b35,1551764857326,651,-4865.0,-8449.0,10495.0,0.0,0.0,0.0,0.0,0.0,0.0,0
76f897717d325b35,1551764857327,652,-5377.0,-8705.0,10751.0,0.0,0.0,0.0,0.0,0.0,0.0,0
76f897717d325b35,1551764857329,653,-4865.0,-8449.0,10751.0,0.0,0.0,0.0,0.0,0.0,0.0,0
76f897717d325b35,1551764857330,654,-4865.0,-8449.0,10751.0,0.0,0.0,0.0,0.0,0.0,0.0,0
76f897717d325b35,1551764857331,655,-4609.0,-8449.0,10751.0,0.0,0.0,0.0,0.0,0.0,0.0,0
76f897717d325b35,1551764857387,656,-4609.0,-8193.0,11263.0,0.0,0.0,0.0,0.0,0.0,0.0,0
76f897717d325b35,1551764857477,657,-4353.0,-7937.0,11263.0,0.0,0.0,0.0,0.0,0.0,0.0,0
76f897717d325b35,1551764857536,658,-4097.0,-7681.0,11519.0,0.0,0.0,0.0,0.0,0.0,0.0,0
76f897717d325b35,1551764857597,659,-4097.0,-7425.0,11519.0,0.0,0.0,0.0,0.0,0.0,0.0,0
76f897717d325b35,1551764857657,660,-4097.0,-7169.0,11775.0,0.0,0.0,0.0,0.0,0.0,0.0,0
76f897717d325b35,1551764857717,661,-3841.0,-6913.0,12031.0,0.0,0.0,0.0,0.0,0.0,0.0,0
76f897717d325b35,1551764857836,662,-3841.0,-6913.0,12287.0,0.0,0.0,0.0,0.0,0.0,0.0,0
76f897717d325b35,1551764857867,663,-3585.0,-6657.0,12287.0,0.0,0.0,0.0,0.0,0.0,0.0,0
76f897717d325b35,1551764857926,664,-3841.0,-6401.0,12543.0,0.0,0.0,0.0,0.0,0.0,0.0,0
76f897717d325b35,1551764857986,665,-3841.0,-6145.0,12287.0,0.0,0.0,0.0,0.0,0.0,0.0,0
76f897717d325b35,1551764858107,666,-3585.0,-5633.0,12799.0,0.0,0.0,0.0,0.0,0.0,0.0,0
76f897717d325b35,1551764858316,667,-3585.0,-5121.0,12543.0,0.0,0.0,0.0,0.0,0.0,0.0,0
76f897717d325b35,1551764858318,668,-3841.0,-4865.0,13055.0,0.0,0.0,0.0,0.0,0.0,0.0,0
76f897717d325b35,1551764858319,669,-4097.0,-4353.0,13311.0,0.0,0.0,0.0,0.0,0.0,0.0,0
76f897717d325b35,1551764858320,670,-4353.0,-4097.0,13055.0,0.0,0.0,0.0,0.0,0.0,0.0,0
76f897717d325b35,1551764858377,671,-4609.0,-4353.0,13567.0,0.0,0.0,0.0,0.0,0.0,0.0,0
76f897717d325b35,1551764858467,672,-4865.0,-4097.0,13567.0,0.0,0.0,0.0,0.0,0.0,0.0,0
76f897717d325b35,1551764858527,673,-5377.0,-4097.0,13567.0,0.0,0.0,0.0,0.0,0.0,0.0,0
76f897717d325b35,1551764858587,674,-5633.0,-4097.0,13567.0,0.0,0.0,0.0,0.0,0.0,0.0,0
76f897717d325b35,1551764858677,675,-5633.0,-4353.0,13055.0,0.0,0.0,0.0,0.0,0.0,0.0,0
76f897717d325b35,1551764858707,676,-5889.0,-5121.0,12799.0,0.0,0.0,0.0,0.0,0.0,0.0,0
76f897717d325b35,1551764858797,677,-5633.0,-5633.0,13055.0,0.0,0.0,0.0,0.0,0.0,0.0,0
76f897717d325b35,1551764858857,678,-5889.0,-5889.0,13055.0,0.0,0.0,0.0,0.0,0.0,0.0,0
76f897717d325b35,1551764858917,679,-5889.0,-6401.0,13055.0,0.0,0.0,0.0,0.0,0.0,0.0,0
76f897717d325b35,1551764858976,680,-6145.0,-6913.0,12543.0,0.0,0.0,0.0,0.0,0.0,0.0,0
76f897717d325b35,1551764859036,681,-6145.0,-7169.0,12031.0,0.0,0.0,0.0,0.0,0.0,0.0,0
76f897717d325b35,1551764859127,682,-6401.0,-7425.0,12031.0,0.0,0.0,0.0,0.0,0.0,0.0,0
76f897717d325b35,1551764859186,683,-6401.0,-7169.0,12031.0,0.0,0.0,0.0,0.0,0.0,0.0,0
76f897717d325b35,1551764859247,684,-6657.0,-7425.0,11775.0,0.0,0.0,0.0,0.0,0.0,0.0,0
76f897717d325b35,1551764859306,685,-6657.0,-7169.0,11775.0,0.0,0.0,0.0,0.0,0.0,0.0,0
76f897717d325b35,1551764859367,686,-6657.0,-7425.0,11775.0,0.0,0.0,0.0,0.0,0.0,0.0,0
76f897717d325b35,1551764859457,687,-6913.0,-7425.0,11775.0,0.0,0.0,0.0,0.0,0.0,0.0,0
76f897717d325b35,1551764859516,688,-6913.0,-7425.0,11519.0,0.0,0.0,0.0,0.0,0.0,0.0,0
76f897717d325b35,1551764859696,689,-6657.0,-7681.0,11519.0,0.0,0.0,0.0,0.0,0.0,0.0,0
76f897717d325b35,1551764859697,690,-6913.0,-7681.0,11263.0,0.0,0.0,0.0,0.0,0.0,0.0,0
76f897717d325b35,1551764859698,691,-7169.0,-7681.0,11519.0,0.0,0.0,0.0,0.0,0.0,0.0,0
76f897717d325b35,1551764859787,692,-6913.0,-7681.0,11007.0,0.0,0.0,0.0,0.0,0.0,0.0,0
76f897717d325b35,1551764859847,693,-6913.0,-7681.0,11519.0,0.0,0.0,0.0,0.0,0.0,0.0,0
76f897717d325b35,1551764859907,694,-7169.0,-7681.0,11263.0,0.0,0.0,0.0,0.0,0.0,0.0,0
76f897717d325b35,1551764859966,695,-7169.0,-7681.0,11007.0,0.0,0.0,0.0,0.0,0.0,0.0,0
76f897717d325b35,1551764860027,696,-6913.0,-7681.0,11263.0,0.0,0.0,0.0,0.0,0.0,0.0,0
76f897717d325b35,1551764860117,697,-6913.0,-7681.0,11007.0,0.0,0.0,0.0,0.0,0.0,0.0,0
76f897717d325b35,1551764860176,698,-6401.0,-7425.0,11519.0,0.0,0.0,0.0,0.0,0.0,0.0,0
76f897717d325b35,1551764860236,699,-6657.0,-7681.0,9983.0,0.0,0.0,0.0,0.0,0.0,0.0,0
76f897717d325b35,1551764860356,700,-6913.0,-7937.0,10495.0,0.0,0.0,0.0,0.0,0.0,0.0,0
76f897717d325b35,1551764860416,701,-7169.0,-8193.0,10495.0,0.0,0.0,0.0,0.0,0.0,0.0,0
76f897717d325b35,1551764860477,702,-7169.0,-8193.0,9727.0,0.0,0.0,0.0,0.0,0.0,0.0,0
76f897717d325b35,1551764860507,703,-6401.0,-8705.0,9471.0,0.0,0.0,0.0,0.0,0.0,0.0,0
76f897717d325b35,1551764860566,704,-6401.0,-8705.0,9215.0,0.0,0.0,0.0,0.0,0.0,0.0,0
76f897717d325b35,1551764860626,705,-6657.0,-8449.0,9215.0,0.0,0.0,0.0,0.0,0.0,0.0,0
76f897717d325b35,1551764860686,706,-6401.0,-8449.0,8959.0,0.0,0.0,0.0,0.0,0.0,0.0,0
76f897717d325b35,1551764860777,707,-6913.0,-8705.0,9471.0,0.0,0.0,0.0,0.0,0.0,0.0,0
76f897717d325b35,1551764860836,708,-6401.0,-8449.0,9215.0,0.0,0.0,0.0,0.0,0.0,0.0,0
76f897717d325b35,1551764860896,709,-6657.0,-8705.0,9215.0,0.0,0.0,0.0,0.0,0.0,0.0,0
76f897717d325b35,1551764860957,710,-6657.0,-8705.0,9215.0,0.0,0.0,0.0,0.0,0.0,0.0,0
76f897717d325b35,1551764861017,711,-6657.0,-8449.0,9471.0,0.0,0.0,0.0,0.0,0.0,0.0,0
76f897717d325b35,1551764861107,712,-6657.0,-8449.0,9471.0,0.0,0.0,0.0,0.0,0.0,0.0,0
76f897717d325b35,1551764861166,713,-6657.0,-8449.0,9471.0,0.0,0.0,0.0,0.0,0.0,0.0,0
76f897717d325b35,1551764861227,714,-6657.0,-8705.0,9215.0,0.0,0.0,0.0,0.0,0.0,0.0,0
76f897717d325b35,1551764861286,715,-6913.0,-8449.0,8959.0,0.0,0.0,0.0,0.0,0.0,0.0,0
76f897717d325b35,1551764861346,716,-6913.0,-8449.0,8959.0,0.0,0.0,0.0,0.0,0.0,0.0,0
76f897717d325b35,1551764861348,717,-6913.0,-8449.0,8959.0,0.0,0.0,0.0,0.0,0.0,0.0,0
76f897717d325b35,1551764861436,718,-6913.0,-8449.0,8703.0,0.0,0.0,0.0,0.0,0.0,0.0,0
76f897717d325b35,1551764861497,719,-7425.0,-8705.0,8703.0,0.0,0.0,0.0,0.0,0.0,0.0,0
76f897717d325b35,1551764861556,720,-6913.0,-8193.0,8191.0,0.0,0.0,0.0,0.0,0.0,0.0,0
76f897717d325b35,1551764861617,721,-6657.0,-7937.0,8447.0,0.0,0.0,0.0,0.0,0.0,0.0,0
76f897717d325b35,1551764861675,722,-6657.0,-8193.0,8447.0,0.0,0.0,0.0,0.0,0.0,0.0,0
76f897717d325b35,1551764861677,723,-6657.0,-8193.0,8447.0,0.0,0.0,0.0,0.0,0.0,0.0,0
76f897717d325b35,1551764861766,724,-6913.0,-8449.0,8447.0,0.0,0.0,0.0,0.0,0.0,0.0,0
76f897717d325b35,1551764861856,725,-6913.0,-8193.0,8191.0,0.0,0.0,0.0,0.0,0.0,0.0,0
76f897717d325b35,1551764861886,726,-7169.0,-8449.0,8191.0,0.0,0.0,0.0,0.0,0.0,0.0,0
76f897717d325b35,1551764861946,727,-6657.0,-8449.0,8447.0,0.0,0.0,0.0,0.0,0.0,0.0,0
76f897717d325b35,1551764862006,728,-6657.0,-8449.0,8447.0,0.0,0.0,0.0,0.0,0.0,0.0,0
76f897717d325b35,1551764862007,729,-6657.0,-8449.0,8447.0,0.0,0.0,0.0,0.0,0.0,0.0,0
76f897717d325b35,1551764862096,730,-6657.0,-8449.0,8191.0,0.0,0.0,0.0,0.0,0.0,0.0,0
76f897717d325b35,1551764862156,731,-6657.0,-8449.0,7935.0,0.0,0.0,0.0,0.0,0.0,0.0,0
76f897717d325b35,1551764862217,732,-6401.0,-8449.0,7679.0,0.0,0.0,0.0,0.0,0.0,0.0,0
76f897717d325b35,1551764862277,733,-6657.0,-8449.0,7935.0,0.0,0.0,0.0,0.0,0.0,0.0,0
76f897717d325b35,1551764862335,734,-6657.0,-8449.0,7935.0,0.0,0.0,0.0,0.0,0.0,0.0,0
76f897717d325b35,1551764862337,735,-6657.0,-8449.0,7935.0,0.0,0.0,0.0,0.0,0.0,0.0,0
76f897717d325b35,1551764862426,736,-6657.0,-8449.0,7935.0,0.0,0.0,0.0,0.0,0.0,0.0,0
76f897717d325b35,1551764862486,737,-6657.0,-8449.0,7935.0,0.0,0.0,0.0,0.0,0.0,0.0,0
76f897717d325b35,1551764862576,738,-6657.0,-8449.0,7935.0,0.0,0.0,0.0,0.0,0.0,0.0,0
76f897717d325b35,1551764862607,739,-6401.0,-8449.0,7679.0,0.0,0.0,0.0,0.0,0.0,0.0,0
76f897717d325b35,1551764862665,740,-6401.0,-8449.0,7679.0,0.0,0.0,0.0,0.0,0.0,0.0,0
76f897717d325b35,1551764862667,741,-6401.0,-8449.0,7679.0,0.0,0.0,0.0,0.0,0.0,0.0,0
76f897717d325b35,1551764862757,742,-6401.0,-8449.0,7679.0,0.0,0.0,0.0,0.0,0.0,0.0,0
76f897717d325b35,1551764862816,743,-6401.0,-8449.0,7679.0,0.0,0.0,0.0,0.0,0.0,0.0,0
76f897717d325b35,1551764862876,744,-6401.0,-8449.0,7679.0,0.0,0.0,0.0,0.0,0.0,0.0,0
76f897717d325b35,1551764862936,745,-6401.0,-8449.0,7679.0,0.0,0.0,0.0,0.0,0.0,0.0,0
76f897717d325b35,1551764863027,746,-6657.0,-8449.0,7679.0,0.0,0.0,0.0,0.0,0.0,0.0,0
76f897717d325b35,1551764863086,747,-6657.0,-8449.0,7679.0,0.0,0.0,0.0,0.0,0.0,0.0,0
76f897717d325b35,1551764863146,748,-6401.0,-8449.0,7679.0,0.0,0.0,0.0,0.0,0.0,0.0,0
76f897717d325b35,1551764863207,749,-6401.0,-8449.0,7679.0,0.0,0.0,0.0,0.0,0.0,0.0,0
76f897717d325b35,1551764863296,750,-6401.0,-8449.0,7679.0,0.0,0.0,0.0,0.0,0.0,0.0,0
76f897717d325b35,1551764863326,751,-6401.0,-8449.0,7679.0,0.0,0.0,0.0,0.0,0.0,0.0,0
76f897717d325b35,1551764863416,752,-6401.0,-8449.0,7679.0,0.0,0.0,0.0,0.0,0.0,0.0,0
76f897717d325b35,1551764863477,753,-6401.0,-8449.0,7679.0,0.0,0.0,0.0,0.0,0.0,0.0,0
76f897717d325b35,1551764863536,754,-6401.0,-8449.0,7679.0,0.0,0.0,0.0,0.0,0.0,0.0,0
76f897717d325b35,1551764863596,755,-6401.0,-8449.0,7679.0,0.0,0.0,0.0,0.0,0.0,0.0,0
76f897717d325b35,1551764863655,756,-6657.0,-8449.0,7935.0,0.0,0.0,0.0,0.0,0.0,0.0,0
76f897717d325b35,1551764863657,757,-6657.0,-8449.0,7935.0,0.0,0.0,0.0,0.0,0.0,0.0,0
76f897717d325b35,1551764863746,758,-6401.0,-8449.0,7679.0,0.0,0.0,0.0,0.0,0.0,0.0,0
76f897717d325b35,1551764863807,759,-6657.0,-8449.0,7679.0,0.0,0.0,0.0,0.0,0.0,0.0,0
76f897717d325b35,1551764863866,760,-6401.0,-8449.0,7935.0,0.0,0.0,0.0,0.0,0.0,0.0,0
76f897717d325b35,1551764863926,761,-6401.0,-8449.0,7679.0,0.0,0.0,0.0,0.0,0.0,0.0,0
76f897717d325b35,1551764863985,762,-6401.0,-8449.0,7679.0,0.0,0.0,0.0,0.0,0.0,0.0,0
76f897717d325b35,1551764863987,763,-6657.0,-8449.0,7679.0,0.0,0.0,0.0,0.0,0.0,0.0,0
76f897717d325b35,1551764864076,764,-6401.0,-8449.0,7679.0,0.0,0.0,0.0,0.0,0.0,0.0,0
76f897717d325b35,1551764864136,765,-6657.0,-8449.0,7679.0,0.0,0.0,0.0,0.0,0.0,0.0,0
76f897717d325b35,1551764864196,766,-6401.0,-8449.0,7679.0,0.0,0.0,0.0,0.0,0.0,0.0,0
76f897717d325b35,1551764864256,767,-6657.0,-8449.0,7679.0,0.0,0.0,0.0,0.0,0.0,0.0,0
76f897717d325b35,1551764864316,768,-6657.0,-8449.0,7679.0,0.0,0.0,0.0,0.0,0.0,0.0,0
76f897717d325b35,1551764864406,769,-6657.0,-8449.0,7679.0,0.0,0.0,0.0,0.0,0.0,0.0,0
76f897717d325b35,1551764864466,770,-6401.0,-8449.0,7679.0,0.0,0.0,0.0,0.0,0.0,0.0,0
76f897717d325b35,1551764864527,771,-6401.0,-8449.0,7679.0,0.0,0.0,0.0,0.0,0.0,0.0,0
76f897717d325b35,1551764864587,772,-6401.0,-8449.0,7679.0,0.0,0.0,0.0,0.0,0.0,0.0,0
76f897717d325b35,1551764864646,773,-6401.0,-8449.0,7679.0,0.0,0.0,0.0,0.0,0.0,0.0,0
76f897717d325b35,1551764864736,774,-6657.0,-8449.0,7679.0,0.0,0.0,0.0,0.0,0.0,0.0,0
76f897717d325b35,1551764864796,775,-6401.0,-8449.0,7679.0,0.0,0.0,0.0,0.0,0.0,0.0,0
76f897717d325b35,1551764864856,776,-6401.0,-8449.0,7679.0,0.0,0.0,0.0,0.0,0.0,0.0,0
76f897717d325b35,1551764864916,777,-6657.0,-8449.0,7679.0,0.0,0.0,0.0,0.0,0.0,0.0,0
76f897717d325b35,1551764864977,778,-6401.0,-8449.0,7679.0,0.0,0.0,0.0,0.0,0.0,0.0,0
76f897717d325b35,1551764865066,779,-6401.0,-8449.0,7679.0,0.0,0.0,0.0,0.0,0.0,0.0,0
76f897717d325b35,1551764865126,780,-6401.0,-8449.0,7679.0,0.0,0.0,0.0,0.0,0.0,0.0,0
76f897717d325b35,1551764865186,781,-6401.0,-8449.0,7679.0,0.0,0.0,0.0,0.0,0.0,0.0,0
76f897717d325b35,1551764865247,782,-6401.0,-8449.0,7679.0,0.0,0.0,0.0,0.0,0.0,0.0,0
76f897717d325b35,1551764865336,783,-6401.0,-8449.0,7679.0,0.0,0.0,0.0,0.0,0.0,0.0,0
76f897717d325b35,1551764865396,784,-6401.0,-8449.0,7679.0,0.0,0.0,0.0,0.0,0.0,0.0,0
76f897717d325b35,1551764865456,785,-6401.0,-8449.0,7679.0,0.0,0.0,0.0,0.0,0.0,0.0,0
76f897717d325b35,1551764865516,786,-6401.0,-8449.0,7679.0,0.0,0.0,0.0,0.0,0.0,0.0,0
76f897717d325b35,1551764865576,787,-6401.0,-8449.0,7679.0,0.0,0.0,0.0,0.0,0.0,0.0,0
76f897717d325b35,1551764865636,788,-6401.0,-8449.0,7679.0,0.0,0.0,0.0,0.0,0.0,0.0,0
76f897717d325b35,1551764865726,789,-6401.0,-8449.0,7679.0,0.0,0.0,0.0,0.0,0.0,0.0,0
76f897717d325b35,1551764865786,790,-6401.0,-8449.0,7679.0,0.0,0.0,0.0,0.0,0.0,0.0,0
76f897717d325b35,1551764865846,791,-6401.0,-8449.0,7679.0,0.0,0.0,0.0,0.0,0.0,0.0,0
76f897717d325b35,1551764865907,792,-6401.0,-8449.0,7679.0,0.0,0.0,0.0,0.0,0.0,0.0,0
76f897717d325b35,1551764865966,793,-6401.0,-8449.0,7679.0,0.0,0.0,0.0,0.0,0.0,0.0,0
76f897717d325b35,1551764866056,794,-6401.0,-8449.0,7679.0,0.0,0.0,0.0,0.0,0.0,0.0,0
76f897717d325b35,1551764866117,795,-6401.0,-8449.0,7679.0,0.0,0.0,0.0,0.0,0.0,0.0,0
76f897717d325b35,1551764866176,796,-6401.0,-8449.0,7679.0,0.0,0.0,0.0,0.0,0.0,0.0,0
76f897717d325b35,1551764866236,797,-6401.0,-8449.0,7679.0,0.0,0.0,0.0,0.0,0.0,0.0,0
76f897717d325b35,1551764866296,798,-6401.0,-8449.0,7679.0,0.0,0.0,0.0,0.0,0.0,0.0,0
76f897717d325b35,1551764866386,799,-6401.0,-8449.0,7679.0,0.0,0.0,0.0,0.0,0.0,0.0,0
76f897717d325b35,1551764866446,800,-6401.0,-8449.0,7679.0,0.0,0.0,0.0,0.0,0.0,0.0,0
76f897717d325b35,1551764866506,801,-6401.0,-8449.0,7679.0,0.0,0.0,0.0,0.0,0.0,0.0,0
76f897717d325b35,1551764866566,802,-6401.0,-8449.0,7679.0,0.0,0.0,0.0,0.0,0.0,0.0,0
76f897717d325b35,1551764866626,803,-6401.0,-8449.0,7679.0,0.0,0.0,0.0,0.0,0.0,0.0,0
76f897717d325b35,1551764866716,804,-6657.0,-8449.0,7679.0,0.0,0.0,0.0,0.0,0.0,0.0,0
76f897717d325b35,1551764866776,805,-6401.0,-8193.0,7679.0,0.0,0.0,0.0,0.0,0.0,0.0,0
76f897717d325b35,1551764866836,806,-6401.0,-8449.0,7679.0,0.0,0.0,0.0,0.0,0.0,0.0,0
76f897717d325b35,1551764866896,807,-6401.0,-8449.0,7679.0,0.0,0.0,0.0,0.0,0.0,0.0,0
76f897717d325b35,1551764866956,808,-6401.0,-8449.0,7679.0,0.0,0.0,0.0,0.0,0.0,0.0,0
76f897717d325b35,1551764867076,809,-6401.0,-8449.0,7679.0,0.0,0.0,0.0,0.0,0.0,0.0,0
76f897717d325b35,1551764867106,810,-6401.0,-8449.0,7679.0,0.0,0.0,0.0,0.0,0.0,0.0,0
76f897717d325b35,1551764867166,811,-6401.0,-8449.0,7679.0,0.0,0.0,0.0,0.0,0.0,0.0,0
76f897717d325b35,1551764867226,812,-6401.0,-8449.0,7679.0,0.0,0.0,0.0,0.0,0.0,0.0,0
76f897717d325b35,1551764867286,813,-6401.0,-8449.0,7679.0,0.0,0.0,0.0,0.0,0.0,0.0,0
76f897717d325b35,1551764867376,814,-6401.0,-8449.0,7679.0,0.0,0.0,0.0,0.0,0.0,0.0,0
76f897717d325b35,1551764867436,815,-6401.0,-8449.0,7679.0,0.0,0.0,0.0,0.0,0.0,0.0,0
76f897717d325b35,1551764867496,816,-6401.0,-8449.0,7679.0,0.0,0.0,0.0,0.0,0.0,0.0,0
76f897717d325b35,1551764867556,817,-6401.0,-8449.0,7679.0,0.0,0.0,0.0,0.0,0.0,0.0,0
76f897717d325b35,1551764867616,818,-6401.0,-8449.0,7679.0,0.0,0.0,0.0,0.0,0.0,0.0,0
76f897717d325b35,1551764867707,819,-6401.0,-8449.0,7679.0,0.0,0.0,0.0,0.0,0.0,0.0,0
76f897717d325b35,1551764867766,820,-6401.0,-8449.0,7679.0,0.0,0.0,0.0,0.0,0.0,0.0,0
76f897717d325b35,1551764867826,821,-6401.0,-8449.0,7679.0,0.0,0.0,0.0,0.0,0.0,0.0,0
76f897717d325b35,1551764867886,822,-6401.0,-8449.0,7679.0,0.0,0.0,0.0,0.0,0.0,0.0,0
76f897717d325b35,1551764867946,823,-6401.0,-8449.0,7679.0,0.0,0.0,0.0,0.0,0.0,0.0,0
76f897717d325b35,1551764868036,824,-6401.0,-8449.0,7679.0,0.0,0.0,0.0,0.0,0.0,0.0,0
76f897717d325b35,1551764868096,825,-6401.0,-8449.0,7679.0,0.0,0.0,0.0,0.0,0.0,0.0,0
76f897717d325b35,1551764868156,826,-6401.0,-8449.0,7679.0,0.0,0.0,0.0,0.0,0.0,0.0,0
76f897717d325b35,1551764868216,827,-6401.0,-8449.0,7679.0,0.0,0.0,0.0,0.0,0.0,0.0,0
76f897717d325b35,1551764868276,828,-6401.0,-8449.0,7679.0,0.0,0.0,0.0,0.0,0.0,0.0,0
76f897717d325b35,1551764868366,829,-6401.0,-8449.0,7679.0,0.0,0.0,0.0,0.0,0.0,0.0,0
76f897717d325b35,1551764868426,830,-6401.0,-8449.0,7679.0,0.0,0.0,0.0,0.0,0.0,0.0,0
76f897717d325b35,1551764868516,831,-6401.0,-8449.0,7679.0,0.0,0.0,0.0,0.0,0.0,0.0,0
76f897717d325b35,1551764868546,832,-6401.0,-8449.0,7679.0,0.0,0.0,0.0,0.0,0.0,0.0,0
76f897717d325b35,1551764868605,833,-6401.0,-8449.0,7679.0,0.0,0.0,0.0,0.0,0.0,0.0,0
76f897717d325b35,1551764868696,834,-6657.0,-8449.0,7679.0,0.0,0.0,0.0,0.0,0.0,0.0,0
76f897717d325b35,1551764868756,835,-6401.0,-8449.0,7679.0,0.0,0.0,0.0,0.0,0.0,0.0,0
76f897717d325b35,1551764868846,836,-6401.0,-8449.0,7679.0,0.0,0.0,0.0,0.0,0.0,0.0,0
76f897717d325b35,1551764868876,837,-6401.0,-8449.0,7679.0,0.0,0.0,0.0,0.0,0.0,0.0,0
76f897717d325b35,1551764868936,838,-6401.0,-8449.0,7679.0,0.0,0.0,0.0,0.0,0.0,0.0,0
76f897717d325b35,1551764869026,839,-6401.0,-8449.0,7679.0,0.0,0.0,0.0,0.0,0.0,0.0,0
76f897717d325b35,1551764869086,840,-6401.0,-8449.0,7679.0,0.0,0.0,0.0,0.0,0.0,0.0,0
76f897717d325b35,1551764869145,841,-6401.0,-8449.0,7679.0,0.0,0.0,0.0,0.0,0.0,0.0,0
76f897717d325b35,1551764869206,842,-6401.0,-8449.0,7679.0,0.0,0.0,0.0,0.0,0.0,0.0,0
76f897717d325b35,1551764869297,843,-6401.0,-8449.0,7679.0,0.0,0.0,0.0,0.0,0.0,0.0,0
76f897717d325b35,1551764869356,844,-6401.0,-8449.0,7679.0,0.0,0.0,0.0,0.0,0.0,0.0,0
76f897717d325b35,1551764869416,845,-6401.0,-8449.0,7679.0,0.0,0.0,0.0,0.0,0.0,0.0,0
76f897717d325b35,1551764869476,846,-6401.0,-8449.0,7679.0,0.0,0.0,0.0,0.0,0.0,0.0,0
76f897717d325b35,1551764869536,847,-6401.0,-8449.0,7679.0,0.0,0.0,0.0,0.0,0.0,0.0,0
76f897717d325b35,1551764869596,848,-6401.0,-8449.0,7679.0,0.0,0.0,0.0,0.0,0.0,0.0,0
76f897717d325b35,1551764869686,849,-6401.0,-8449.0,7423.0,0.0,0.0,0.0,0.0,0.0,0.0,0
76f897717d325b35,1551764869746,850,-6401.0,-8449.0,7679.0,0.0,0.0,0.0,0.0,0.0,0.0,0
76f897717d325b35,1551764869836,851,-6401.0,-8449.0,7679.0,0.0,0.0,0.0,0.0,0.0,0.0,0
76f897717d325b35,1551764869866,852,-6401.0,-8449.0,7679.0,0.0,0.0,0.0,0.0,0.0,0.0,0
76f897717d325b35,1551764869956,853,-6401.0,-8449.0,7679.0,0.0,0.0,0.0,0.0,0.0,0.0,0
76f897717d325b35,1551764870016,854,-6401.0,-8193.0,7679.0,0.0,0.0,0.0,0.0,0.0,0.0,0
76f897717d325b35,1551764870076,855,-6657.0,-8449.0,7423.0,0.0,0.0,0.0,0.0,0.0,0.0,0
76f897717d325b35,1551764870136,856,-6401.0,-8449.0,7679.0,0.0,0.0,0.0,0.0,0.0,0.0,0
76f897717d325b35,1551764870196,857,-6401.0,-8449.0,7679.0,0.0,0.0,0.0,0.0,0.0,0.0,0
76f897717d325b35,1551764870256,858,-6401.0,-8449.0,7679.0,0.0,0.0,0.0,0.0,0.0,0.0,0
76f897717d325b35,1551764870346,859,-6401.0,-8449.0,7679.0,0.0,0.0,0.0,0.0,0.0,0.0,0
76f897717d325b35,1551764870406,860,-6401.0,-8449.0,7679.0,0.0,0.0,0.0,0.0,0.0,0.0,0
76f897717d325b35,1551764870466,861,-6401.0,-8449.0,7679.0,0.0,0.0,0.0,0.0,0.0,0.0,0
76f897717d325b35,1551764870526,862,-6401.0,-8449.0,7679.0,0.0,0.0,0.0,0.0,0.0,0.0,0
76f897717d325b35,1551764870586,863,-6401.0,-8449.0,7679.0,0.0,0.0,0.0,0.0,0.0,0.0,0
76f897717d325b35,1551764870676,864,-6401.0,-8449.0,7679.0,0.0,0.0,0.0,0.0,0.0,0.0,0
76f897717d325b35,1551764870736,865,-6401.0,-8449.0,7679.0,0.0,0.0,0.0,0.0,0.0,0.0,0
76f897717d325b35,1551764870796,866,-6657.0,-8193.0,7679.0,0.0,0.0,0.0,0.0,0.0,0.0,0
76f897717d325b35,1551764870886,867,-6657.0,-8449.0,7679.0,0.0,0.0,0.0,0.0,0.0,0.0,0
76f897717d325b35,1551764870916,868,-6657.0,-8449.0,7679.0,0.0,0.0,0.0,0.0,0.0,0.0,0
76f897717d325b35,1551764871006,869,-6657.0,-8449.0,7935.0,0.0,0.0,0.0,0.0,0.0,0.0,0
76f897717d325b35,1551764871066,870,-6657.0,-8449.0,7935.0,0.0,0.0,0.0,0.0,0.0,0.0,0
76f897717d325b35,1551764871126,871,-6401.0,-8449.0,7935.0,0.0,0.0,0.0,0.0,0.0,0.0,0
76f897717d325b35,1551764871186,872,-6401.0,-8449.0,7935.0,0.0,0.0,0.0,0.0,0.0,0.0,0
76f897717d325b35,1551764871246,873,-6657.0,-8449.0,7935.0,0.0,0.0,0.0,0.0,0.0,0.0,0
76f897717d325b35,1551764871336,874,-6657.0,-8449.0,7935.0,0.0,0.0,0.0,0.0,0.0,0.0,0
76f897717d325b35,1551764871396,875,-6657.0,-8449.0,7935.0,0.0,0.0,0.0,0.0,0.0,0.0,0
76f897717d325b35,1551764871456,876,-6657.0,-8449.0,7935.0,0.0,0.0,0.0,0.0,0.0,0.0,0
76f897717d325b35,1551764871516,877,-6657.0,-8449.0,7935.0,0.0,0.0,0.0,0.0,0.0,0.0,0
76f897717d325b35,1551764871576,878,-6657.0,-8449.0,7935.0,0.0,0.0,0.0,0.0,0.0,0.0,0
76f897717d325b35,1551764871666,879,-6657.0,-8449.0,7935.0,0.0,0.0,0.0,0.0,0.0,0.0,0
76f897717d325b35,1551764871726,880,-6657.0,-8449.0,7935.0,0.0,0.0,0.0,0.0,0.0,0.0,0
76f897717d325b35,1551764871786,881,-6657.0,-8449.0,8191.0,0.0,0.0,0.0,0.0,0.0,0.0,0
76f897717d325b35,1551764871846,882,-6657.0,-8449.0,7935.0,0.0,0.0,0.0,0.0,0.0,0.0,0
76f897717d325b35,1551764871906,883,-6657.0,-8449.0,7935.0,0.0,0.0,0.0,0.0,0.0,0.0,0
76f897717d325b35,1551764871996,884,-6657.0,-8449.0,7935.0,0.0,0.0,0.0,0.0,0.0,0.0,0
76f897717d325b35,1551764872056,885,-6657.0,-8449.0,7935.0,0.0,0.0,0.0,0.0,0.0,0.0,0
76f897717d325b35,1551764872116,886,-6913.0,-8193.0,7935.0,0.0,0.0,0.0,0.0,0.0,0.0,0
76f897717d325b35,1551764872176,887,-6657.0,-8449.0,8191.0,0.0,0.0,0.0,0.0,0.0,0.0,0
76f897717d325b35,1551764872236,888,-6657.0,-8449.0,8191.0,0.0,0.0,0.0,0.0,0.0,0.0,0
76f897717d325b35,1551764872326,889,-6913.0,-8449.0,8191.0,0.0,0.0,0.0,0.0,0.0,0.0,0
76f897717d325b35,1551764872386,890,-6657.0,-8193.0,7935.0,0.0,0.0,0.0,0.0,0.0,0.0,0
76f897717d325b35,1551764872446,891,-6657.0,-8449.0,7935.0,0.0,0.0,0.0,0.0,0.0,0.0,0
76f897717d325b35,1551764872506,892,-6657.0,-8193.0,7679.0,0.0,0.0,0.0,0.0,0.0,0.0,0
76f897717d325b35,1551764872566,893,-6401.0,-8449.0,7679.0,0.0,0.0,0.0,0.0,0.0,0.0,0
76f897717d325b35,1551764872656,894,-6657.0,-8449.0,7679.0,0.0,0.0,0.0,0.0,0.0,0.0,0
76f897717d325b35,1551764872716,895,-6401.0,-8449.0,7679.0,0.0,0.0,0.0,0.0,0.0,0.0,0
76f897717d325b35,1551764872776,896,-6401.0,-8193.0,7679.0,0.0,0.0,0.0,0.0,0.0,0.0,0
76f897717d325b35,1551764872836,897,-6401.0,-8449.0,7679.0,0.0,0.0,0.0,0.0,0.0,0.0,0
76f897717d325b35,1551764872897,898,-6401.0,-8449.0,7679.0,0.0,0.0,0.0,0.0,0.0,0.0,0
76f897717d325b35,1551764873016,899,-6401.0,-8193.0,7679.0,0.0,0.0,0.0,0.0,0.0,0.0,0
76f897717d325b35,1551764873046,900,-6657.0,-8193.0,7423.0,0.0,0.0,0.0,0.0,0.0,0.0,0
76f897717d325b35,1551764873106,901,-6401.0,-8449.0,7679.0,0.0,0.0,0.0,0.0,0.0,0.0,0
76f897717d325b35,1551764873166,902,-6401.0,-8449.0,7679.0,0.0,0.0,0.0,0.0,0.0,0.0,0
76f897717d325b35,1551764873226,903,-6657.0,-8449.0,7679.0,0.0,0.0,0.0,0.0,0.0,0.0,0
76f897717d325b35,1551764873316,904,-6401.0,-8449.0,7679.0,0.0,0.0,0.0,0.0,0.0,0.0,0
76f897717d325b35,1551764873376,905,-6401.0,-8449.0,7679.0,0.0,0.0,0.0,0.0,0.0,0.0,0
76f897717d325b35,1551764873436,906,-6401.0,-8449.0,7679.0,0.0,0.0,0.0,0.0,0.0,0.0,0
76f897717d325b35,1551764873496,907,-6657.0,-8449.0,7679.0,0.0,0.0,0.0,0.0,0.0,0.0,0
76f897717d325b35,1551764873556,908,-6401.0,-8449.0,7679.0,0.0,0.0,0.0,0.0,0.0,0.0,0
76f897717d325b35,1551764873646,909,-6401.0,-8449.0,7679.0,0.0,0.0,0.0,0.0,0.0,0.0,0
76f897717d325b35,1551764873736,910,-6657.0,-8449.0,7679.0,0.0,0.0,0.0,0.0,0.0,0.0,0
76f897717d325b35,1551764873766,911,-6657.0,-8449.0,7679.0,0.0,0.0,0.0,0.0,0.0,0.0,0
76f897717d325b35,1551764873826,912,-6657.0,-8449.0,7679.0,0.0,0.0,0.0,0.0,0.0,0.0,0
76f897717d325b35,1551764873886,913,-6401.0,-8449.0,7679.0,0.0,0.0,0.0,0.0,0.0,0.0,0
76f897717d325b35,1551764873976,914,-6401.0,-8449.0,7679.0,0.0,0.0,0.0,0.0,0.0,0.0,0
76f897717d325b35,1551764874036,915,-6401.0,-8193.0,7679.0,0.0,0.0,0.0,0.0,0.0,0.0,0
76f897717d325b35,1551764874096,916,-6657.0,-8193.0,7679.0,0.0,0.0,0.0,0.0,0.0,0.0,0
76f897717d325b35,1551764874156,917,-6401.0,-8449.0,7679.0,0.0,0.0,0.0,0.0,0.0,0.0,0
76f897717d325b35,1551764874216,918,-6401.0,-8193.0,7679.0,0.0,0.0,0.0,0.0,0.0,0.0,0
76f897717d325b35,1551764874306,919,-6401.0,-8449.0,7679.0,0.0,0.0,0.0,0.0,0.0,0.0,0
76f897717d325b35,1551764874366,920,-6401.0,-8193.0,7679.0,0.0,0.0,0.0,0.0,0.0,0.0,0
76f897717d325b35,1551764874426,921,-6657.0,-8449.0,7679.0,0.0,0.0,0.0,0.0,0.0,0.0,0
76f897717d325b35,1551764874486,922,-6401.0,-8193.0,7679.0,0.0,0.0,0.0,0.0,0.0,0.0,0
76f897717d325b35,1551764874546,923,-6401.0,-8449.0,7679.0,0.0,0.0,0.0,0.0,0.0,0.0,0
76f897717d325b35,1551764874636,924,-6401.0,-8449.0,7679.0,0.0,0.0,0.0,0.0,0.0,0.0,0
76f897717d325b35,1551764874696,925,-6657.0,-8193.0,7679.0,0.0,0.0,0.0,0.0,0.0,0.0,0
76f897717d325b35,1551764874786,926,-6401.0,-8193.0,7679.0,0.0,0.0,0.0,0.0,0.0,0.0,0
76f897717d325b35,1551764874846,927,-6401.0,-8449.0,7679.0,0.0,0.0,0.0,0.0,0.0,0.0,0
76f897717d325b35,1551764874876,928,-6401.0,-8449.0,7679.0,0.0,0.0,0.0,0.0,0.0,0.0,0
76f897717d325b35,1551764874966,929,-6401.0,-8449.0,7679.0,0.0,0.0,0.0,0.0,0.0,0.0,0
76f897717d325b35,1551764875026,930,-6401.0,-8449.0,7679.0,0.0,0.0,0.0,0.0,0.0,0.0,0
76f897717d325b35,1551764875086,931,-6657.0,-8193.0,7679.0,0.0,0.0,0.0,0.0,0.0,0.0,0
76f897717d325b35,1551764875146,932,-6401.0,-8193.0,7679.0,0.0,0.0,0.0,0.0,0.0,0.0,0
76f897717d325b35,1551764875206,933,-6657.0,-8449.0,7679.0,0.0,0.0,0.0,0.0,0.0,0.0,0
76f897717d325b35,1551764875296,934,-6401.0,-8193.0,7423.0,0.0,0.0,0.0,0.0,0.0,0.0,0
76f897717d325b35,1551764875386,935,-6657.0,-8449.0,7679.0,0.0,0.0,0.0,0.0,0.0,0.0,0
76f897717d325b35,1551764875416,936,-6401.0,-8449.0,7679.0,0.0,0.0,0.0,0.0,0.0,0.0,0
76f897717d325b35,1551764875476,937,-6401.0,-8449.0,7423.0,0.0,0.0,0.0,0.0,0.0,0.0,0
76f897717d325b35,1551764875536,938,-6657.0,-8193.0,7679.0,0.0,0.0,0.0,0.0,0.0,0.0,0
76f897717d325b35,1551764875626,939,-6401.0,-8193.0,7679.0,0.0,0.0,0.0,0.0,0.0,0.0,0
76f897717d325b35,1551764875686,940,-6401.0,-8449.0,7679.0,0.0,0.0,0.0,0.0,0.0,0.0,0
76f897717d325b35,1551764875776,941,-6401.0,-8449.0,7679.0,0.0,0.0,0.0,0.0,0.0,0.0,0
76f897717d325b35,1551764875806,942,-6657.0,-8193.0,7679.0,0.0,0.0,0.0,0.0,0.0,0.0,0
76f897717d325b35,1551764875866,943,-6657.0,-8193.0,7423.0,0.0,0.0,0.0,0.0,0.0,0.0,0
76f897717d325b35,1551764875956,944,-6401.0,-8449.0,7423.0,0.0,0.0,0.0,0.0,0.0,0.0,0
76f897717d325b35,1551764876016,945,-6401.0,-8449.0,7679.0,0.0,0.0,0.0,0.0,0.0,0.0,0
76f897717d325b35,1551764876076,946,-6401.0,-8449.0,7679.0,0.0,0.0,0.0,0.0,0.0,0.0,0
76f897717d325b35,1551764876135,947,-6401.0,-8193.0,7679.0,0.0,0.0,0.0,0.0,0.0,0.0,0
76f897717d325b35,1551764876196,948,-6657.0,-8449.0,7679.0,0.0,0.0,0.0,0.0,0.0,0.0,0
76f897717d325b35,1551764876286,949,-6657.0,-8449.0,7679.0,0.0,0.0,0.0,0.0,0.0,0.0,0
76f897717d325b35,1551764876346,950,-6657.0,-8449.0,7935.0,0.0,0.0,0.0,0.0,0.0,0.0,0
76f897717d325b35,1551764876406,951,-6657.0,-8449.0,7679.0,0.0,0.0,0.0,0.0,0.0,0.0,0
76f897717d325b35,1551764876496,952,-6401.0,-8449.0,7679.0,0.0,0.0,0.0,0.0,0.0,0.0,0
76f897717d325b35,1551764876526,953,-6657.0,-8193.0,7679.0,0.0,0.0,0.0,0.0,0.0,0.0,0
76f897717d325b35,1551764876616,954,-6657.0,-8449.0,7679.0,0.0,0.0,0.0,0.0,0.0,0.0,0
76f897717d325b35,1551764876676,955,-6657.0,-8449.0,7679.0,0.0,0.0,0.0,0.0,0.0,0.0,0
76f897717d325b35,1551764876736,956,-6657.0,-8449.0,7679.0,0.0,0.0,0.0,0.0,0.0,0.0,0
76f897717d325b35,1551764876796,957,-6657.0,-8449.0,7679.0,0.0,0.0,0.0,0.0,0.0,0.0,0
76f897717d325b35,1551764876856,958,-6657.0,-8449.0,7679.0,0.0,0.0,0.0,0.0,0.0,0.0,0
76f897717d325b35,1551764876946,959,-6657.0,-8449.0,7679.0,0.0,0.0,0.0,0.0,0.0,0.0,0
76f897717d325b35,1551764877006,960,-6657.0,-8449.0,7679.0,0.0,0.0,0.0,0.0,0.0,0.0,0
76f897717d325b35,1551764877066,961,-6657.0,-8449.0,7679.0,0.0,0.0,0.0,0.0,0.0,0.0,0
76f897717d325b35,1551764877126,962,-6657.0,-8449.0,7679.0,0.0,0.0,0.0,0.0,0.0,0.0,0
76f897717d325b35,1551764877186,963,-6657.0,-8449.0,7935.0,0.0,0.0,0.0,0.0,0.0,0.0,0
76f897717d325b35,1551764877276,964,-6401.0,-8449.0,7935.0,0.0,0.0,0.0,0.0,0.0,0.0,0
76f897717d325b35,1551764877336,965,-6657.0,-8449.0,7935.0,0.0,0.0,0.0,0.0,0.0,0.0,0
76f897717d325b35,1551764877396,966,-6657.0,-8193.0,7679.0,0.0,0.0,0.0,0.0,0.0,0.0,0
76f897717d325b35,1551764877456,967,-6657.0,-8449.0,7935.0,0.0,0.0,0.0,0.0,0.0,0.0,0
76f897717d325b35,1551764877516,968,-6401.0,-8449.0,7935.0,0.0,0.0,0.0,0.0,0.0,0.0,0
76f897717d325b35,1551764877606,969,-6913.0,-8449.0,8191.0,0.0,0.0,0.0,0.0,0.0,0.0,0
76f897717d325b35,1551764877666,970,-6657.0,-8449.0,7935.0,0.0,0.0,0.0,0.0,0.0,0.0,0
76f897717d325b35,1551764877726,971,-6657.0,-8449.0,7935.0,0.0,0.0,0.0,0.0,0.0,0.0,0
76f897717d325b35,1551764877786,972,-6657.0,-8449.0,7679.0,0.0,0.0,0.0,0.0,0.0,0.0,0
76f897717d325b35,1551764877846,973,-6657.0,-8193.0,7679.0,0.0,0.0,0.0,0.0,0.0,0.0,0
76f897717d325b35,1551764877936,974,-6657.0,-8193.0,7679.0,0.0,0.0,0.0,0.0,0.0,0.0,0
76f897717d325b35,1551764877996,975,-6401.0,-8449.0,7679.0,0.0,0.0,0.0,0.0,0.0,0.0,0
76f897717d325b35,1551764878056,976,-6401.0,-8449.0,7679.0,0.0,0.0,0.0,0.0,0.0,0.0,0
76f897717d325b35,1551764878116,977,-6401.0,-8193.0,7679.0,0.0,0.0,0.0,0.0,0.0,0.0,0
76f897717d325b35,1551764878176,978,-6657.0,-8449.0,7679.0,0.0,0.0,0.0,0.0,0.0,0.0,0
76f897717d325b35,1551764878266,979,-6401.0,-8449.0,7679.0,0.0,0.0,0.0,0.0,0.0,0.0,0
76f897717d325b35,1551764878326,980,-6401.0,-8193.0,7679.0,0.0,0.0,0.0,0.0,0.0,0.0,0
76f897717d325b35,1551764878386,981,-6401.0,-8449.0,7679.0,0.0,0.0,0.0,0.0,0.0,0.0,0
76f897717d325b35,1551764878446,982,-6657.0,-8449.0,7423.0,0.0,0.0,0.0,0.0,0.0,0.0,0
76f897717d325b35,1551764878506,983,-6401.0,-8449.0,7423.0,0.0,0.0,0.0,0.0,0.0,0.0,0
76f897717d325b35,1551764878596,984,-6657.0,-8193.0,7423.0,0.0,0.0,0.0,0.0,0.0,0.0,0
76f897717d325b35,1551764878656,985,-6401.0,-8449.0,7679.0,0.0,0.0,0.0,0.0,0.0,0.0,0
76f897717d325b35,1551764878716,986,-6401.0,-8193.0,7679.0,0.0,0.0,0.0,0.0,0.0,0.0,0
76f897717d325b35,1551764878776,987,-6401.0,-8193.0,7679.0,0.0,0.0,0.0,0.0,0.0,0.0,0
76f897717d325b35,1551764878836,988,-6401.0,-8193.0,7679.0,0.0,0.0,0.0,0.0,0.0,0.0,0
76f897717d325b35,1551764878926,989,-6401.0,-8449.0,7679.0,0.0,0.0,0.0,0.0,0.0,0.0,0
76f897717d325b35,1551764878986,990,-6401.0,-8193.0,7679.0,0.0,0.0,0.0,0.0,0.0,0.0,0
76f897717d325b35,1551764879046,991,-6401.0,-8193.0,7423.0,0.0,0.0,0.0,0.0,0.0,0.0,0
76f897717d325b35,1551764879106,992,-6401.0,-8449.0,7423.0,0.0,0.0,0.0,0.0,0.0,0.0,0
76f897717d325b35,1551764879167,993,-6401.0,-8193.0,7423.0,0.0,0.0,0.0,0.0,0.0,0.0,0
76f897717d325b35,1551764879256,994,-6401.0,-8193.0,7423.0,0.0,0.0,0.0,0.0,0.0,0.0,0
76f897717d325b35,1551764879316,995,-6401.0,-8193.0,7679.0,0.0,0.0,0.0,0.0,0.0,0.0,0
76f897717d325b35,1551764879376,996,-6401.0,-8193.0,7423.0,0.0,0.0,0.0,0.0,0.0,0.0,0
76f897717d325b35,1551764879435,997,-6401.0,-8193.0,7679.0,0.0,0.0,0.0,0.0,0.0,0.0,0
76f897717d325b35,1551764879526,998,-6401.0,-8193.0,7423.0,0.0,0.0,0.0,0.0,0.0,0.0,0
76f897717d325b35,1551764879586,999,-6401.0,-8449.0,7423.0,0.0,0.0,0.0,0.0,0.0,0.0,0
76f897717d325b35,1551764879676,1000,-6401.0,-8449.0,7679.0,0.0,0.0,0.0,0.0,0.0,0.0,0
76f897717d325b35,1551764879706,1001,-6401.0,-8193.0,7423.0,0.0,0.0,0.0,0.0,0.0,0.0,0
76f897717d325b35,1551764879766,1002,-6401.0,-8449.0,7423.0,0.0,0.0,0.0,0.0,0.0,0.0,0
76f897717d325b35,1551764879826,1003,-6401.0,-8193.0,7679.0,0.0,0.0,0.0,0.0,0.0,0.0,0
76f897717d325b35,1551764879916,1004,-6401.0,-8193.0,7423.0,0.0,0.0,0.0,0.0,0.0,0.0,0
76f897717d325b35,1551764879976,1005,-6401.0,-8193.0,7679.0,0.0,0.0,0.0,0.0,0.0,0.0,0
76f897717d325b35,1551764880037,1006,-6401.0,-8193.0,7423.0,0.0,0.0,0.0,0.0,0.0,0.0,0
76f897717d325b35,1551764880096,1007,-6401.0,-8193.0,7423.0,0.0,0.0,0.0,0.0,0.0,0.0,0
76f897717d325b35,1551764880156,1008,-6401.0,-8193.0,7423.0,0.0,0.0,0.0,0.0,0.0,0.0,0
76f897717d325b35,1551764880246,1009,-6401.0,-8193.0,7679.0,0.0,0.0,0.0,0.0,0.0,0.0,0
76f897717d325b35,1551764880306,1010,-6401.0,-8193.0,7423.0,0.0,0.0,0.0,0.0,0.0,0.0,0
76f897717d325b35,1551764880366,1011,-6401.0,-8193.0,7423.0,0.0,0.0,0.0,0.0,0.0,0.0,0
76f897717d325b35,1551764880425,1012,-6401.0,-8193.0,7679.0,0.0,0.0,0.0,0.0,0.0,0.0,0
76f897717d325b35,1551764880427,1013,-6401.0,-8449.0,7423.0,0.0,0.0,0.0,0.0,0.0,0.0,0
76f897717d325b35,1551764880486,1014,-6401.0,-8193.0,7423.0,0.0,0.0,0.0,0.0,0.0,0.0,0
76f897717d325b35,1551764880576,1015,-6401.0,-8193.0,7423.0,0.0,0.0,0.0,0.0,0.0,0.0,0
76f897717d325b35,1551764880635,1016,-6401.0,-8193.0,7423.0,0.0,0.0,0.0,0.0,0.0,0.0,0
76f897717d325b35,1551764880696,1017,-6401.0,-8193.0,7423.0,0.0,0.0,0.0,0.0,0.0,0.0,0
76f897717d325b35,1551764880756,1018,-6401.0,-8449.0,7423.0,0.0,0.0,0.0,0.0,0.0,0.0,0
76f897717d325b35,1551764880816,1019,-6401.0,-8193.0,7423.0,0.0,0.0,0.0,0.0,0.0,0.0,0
76f897717d325b35,1551764880906,1020,-6401.0,-8449.0,7423.0,0.0,0.0,0.0,0.0,0.0,0.0,0
76f897717d325b35,1551764880966,1021,-6401.0,-8193.0,7423.0,0.0,0.0,0.0,0.0,0.0,0.0,0
76f897717d325b35,1551764881026,1022,-6401.0,-8449.0,7423.0,0.0,0.0,0.0,0.0,0.0,0.0,0
76f897717d325b35,1551764881086,1023,-6401.0,-8193.0,7679.0,0.0,0.0,0.0,0.0,0.0,0.0,0
76f897717d325b35,1551764881145,1024,-6401.0,-8449.0,7423.0,0.0,0.0,0.0,0.0,0.0,0.0,0
76f897717d325b35,1551764881236,1025,-6401.0,-8193.0,7423.0,0.0,0.0,0.0,0.0,0.0,0.0,0
76f897717d325b35,1551764881296,1026,-6401.0,-8449.0,7423.0,0.0,0.0,0.0,0.0,0.0,0.0,0
76f897717d325b35,1551764881356,1027,-6401.0,-8193.0,7423.0,0.0,0.0,0.0,0.0,0.0,0.0,0
76f897717d325b35,1551764881415,1028,-6401.0,-8193.0,7423.0,0.0,0.0,0.0,0.0,0.0,0.0,0
76f897717d325b35,1551764881417,1029,-6401.0,-8193.0,7423.0,0.0,0.0,0.0,0.0,0.0,0.0,0
76f897717d325b35,1551764881475,1030,-6401.0,-8193.0,7423.0,0.0,0.0,0.0,0.0,0.0,0.0,0
76f897717d325b35,1551764881566,1031,-6401.0,-8193.0,7423.0,0.0,0.0,0.0,0.0,0.0,0.0,0
76f897717d325b35,1551764881626,1032,-6401.0,-8449.0,7423.0,0.0,0.0,0.0,0.0,0.0,0.0,0
76f897717d325b35,1551764881716,1033,-6401.0,-8193.0,7423.0,0.0,0.0,0.0,0.0,0.0,0.0,0
76f897717d325b35,1551764881746,1034,-6401.0,-8193.0,7423.0,0.0,0.0,0.0,0.0,0.0,0.0,0
76f897717d325b35,1551764881806,1035,-6401.0,-8193.0,7423.0,0.0,0.0,0.0,0.0,0.0,0.0,0
76f897717d325b35,1551764881896,1036,-6401.0,-8449.0,7423.0,0.0,0.0,0.0,0.0,0.0,0.0,0
76f897717d325b35,1551764881956,1037,-6401.0,-8193.0,7423.0,0.0,0.0,0.0,0.0,0.0,0.0,0
76f897717d325b35,1551764882016,1038,-6401.0,-8193.0,7679.0,0.0,0.0,0.0,0.0,0.0,0.0,0
76f897717d325b35,1551764882075,1039,-6401.0,-8193.0,7423.0,0.0,0.0,0.0,0.0,0.0,0.0,0
76f897717d325b35,1551764882077,1040,-6401.0,-8193.0,7423.0,0.0,0.0,0.0,0.0,0.0,0.0,0
76f897717d325b35,1551764882136,1041,-6401.0,-8193.0,7423.0,0.0,0.0,0.0,0.0,0.0,0.0,0
76f897717d325b35,1551764882226,1042,-6401.0,-8193.0,7423.0,0.0,0.0,0.0,0.0,0.0,0.0,0
76f897717d325b35,1551764882286,1043,-6401.0,-8193.0,7679.0,0.0,0.0,0.0,0.0,0.0,0.0,0
76f897717d325b35,1551764882346,1044,-6401.0,-8449.0,7423.0,0.0,0.0,0.0,0.0,0.0,0.0,0
76f897717d325b35,1551764882435,1045,-6401.0,-8193.0,7423.0,0.0,0.0,0.0,0.0,0.0,0.0,0
76f897717d325b35,1551764882436,1046,-6401.0,-8193.0,7423.0,0.0,0.0,0.0,0.0,0.0,0.0,0
76f897717d325b35,1551764882466,1047,-6401.0,-8449.0,7423.0,0.0,0.0,0.0,0.0,0.0,0.0,0
76f897717d325b35,1551764882556,1048,-6401.0,-8193.0,7423.0,0.0,0.0,0.0,0.0,0.0,0.0,0
76f897717d325b35,1551764882616,1049,-6401.0,-8193.0,7423.0,0.0,0.0,0.0,0.0,0.0,0.0,0
76f897717d325b35,1551764882676,1050,-6401.0,-8193.0,7423.0,0.0,0.0,0.0,0.0,0.0,0.0,0
76f897717d325b35,1551764882735,1051,-6401.0,-8193.0,7423.0,0.0,0.0,0.0,0.0,0.0,0.0,0
76f897717d325b35,1551764882796,1052,-6401.0,-8449.0,7423.0,0.0,0.0,0.0,0.0,0.0,0.0,0
76f897717d325b35,1551764882886,1053,-6401.0,-8193.0,7679.0,0.0,0.0,0.0,0.0,0.0,0.0,0
76f897717d325b35,1551764882946,1054,-6401.0,-8193.0,7423.0,0.0,0.0,0.0,0.0,0.0,0.0,0
76f897717d325b35,1551764883006,1055,-6401.0,-8449.0,7423.0,0.0,0.0,0.0,0.0,0.0,0.0,0
76f897717d325b35,1551764883066,1056,-6401.0,-8193.0,7423.0,0.0,0.0,0.0,0.0,0.0,0.0,0
76f897717d325b35,1551764883155,1057,-6401.0,-8449.0,7423.0,0.0,0.0,0.0,0.0,0.0,0.0,0
76f897717d325b35,1551764883216,1058,-6401.0,-8193.0,7423.0,0.0,0.0,0.0,0.0,0.0,0.0,0
76f897717d325b35,1551764883276,1059,-6401.0,-8449.0,7679.0,0.0,0.0,0.0,0.0,0.0,0.0,0
76f897717d325b35,1551764883335,1060,-6401.0,-8449.0,7679.0,0.0,0.0,0.0,0.0,0.0,0.0,0
76f897717d325b35,1551764883395,1061,-6401.0,-8193.0,7679.0,0.0,0.0,0.0,0.0,0.0,0.0,0
76f897717d325b35,1551764883396,1062,-6657.0,-8449.0,7679.0,0.0,0.0,0.0,0.0,0.0,0.0,0
76f897717d325b35,1551764883456,1063,-6401.0,-8449.0,7423.0,0.0,0.0,0.0,0.0,0.0,0.0,0
76f897717d325b35,1551764883546,1064,-6401.0,-8449.0,7423.0,0.0,0.0,0.0,0.0,0.0,0.0,0
76f897717d325b35,1551764883605,1065,-6401.0,-8449.0,7679.0,0.0,0.0,0.0,0.0,0.0,0.0,0
76f897717d325b35,1551764883666,1066,-6401.0,-8193.0,7679.0,0.0,0.0,0.0,0.0,0.0,0.0,0
76f897717d325b35,1551764883725,1067,-6401.0,-8449.0,7423.0,0.0,0.0,0.0,0.0,0.0,0.0,0
76f897717d325b35,1551764883726,1068,-6401.0,-8449.0,7423.0,0.0,0.0,0.0,0.0,0.0,0.0,0
76f897717d325b35,1551764883786,1069,-6401.0,-8193.0,7423.0,0.0,0.0,0.0,0.0,0.0,0.0,0
76f897717d325b35,1551764883876,1070,-6401.0,-8193.0,7679.0,0.0,0.0,0.0,0.0,0.0,0.0,0
76f897717d325b35,1551764883935,1071,-6401.0,-8449.0,7423.0,0.0,0.0,0.0,0.0,0.0,0.0,0
76f897717d325b35,1551764883996,1072,-6401.0,-8449.0,7423.0,0.0,0.0,0.0,0.0,0.0,0.0,0
76f897717d325b35,1551764884056,1073,-6657.0,-8193.0,7679.0,0.0,0.0,0.0,0.0,0.0,0.0,0
76f897717d325b35,1551764884115,1074,-6401.0,-8193.0,7423.0,0.0,0.0,0.0,0.0,0.0,0.0,0
76f897717d325b35,1551764884205,1075,-6401.0,-8193.0,7423.0,0.0,0.0,0.0,0.0,0.0,0.0,0
76f897717d325b35,1551764884266,1076,-6401.0,-8193.0,7679.0,0.0,0.0,0.0,0.0,0.0,0.0,0
76f897717d325b35,1551764884326,1077,-6401.0,-8193.0,7423.0,0.0,0.0,0.0,0.0,0.0,0.0,0
76f897717d325b35,1551764884386,1078,-6401.0,-8449.0,7423.0,0.0,0.0,0.0,0.0,0.0,0.0,0
76f897717d325b35,1551764884446,1079,-6401.0,-8193.0,7423.0,0.0,0.0,0.0,0.0,0.0,0.0,0
76f897717d325b35,1551764884535,1080,-6401.0,-8449.0,7423.0,0.0,0.0,0.0,0.0,0.0,0.0,0
76f897717d325b35,1551764884596,1081,-6401.0,-8193.0,7679.0,0.0,0.0,0.0,0.0,0.0,0.0,0
76f897717d325b35,1551764884656,1082,-6401.0,-8449.0,7679.0,0.0,0.0,0.0,0.0,0.0,0.0,0
76f897717d325b35,1551764884715,1083,-6401.0,-8193.0,7423.0,0.0,0.0,0.0,0.0,0.0,0.0,0
76f897717d325b35,1551764884717,1084,-6401.0,-8193.0,7423.0,0.0,0.0,0.0,0.0,0.0,0.0,0
76f897717d325b35,1551764884776,1085,-6401.0,-8449.0,7423.0,0.0,0.0,0.0,0.0,0.0,0.0,0
76f897717d325b35,1551764884866,1086,-6401.0,-8193.0,7423.0,0.0,0.0,0.0,0.0,0.0,0.0,0
76f897717d325b35,1551764884926,1087,-6401.0,-8449.0,7423.0,0.0,0.0,0.0,0.0,0.0,0.0,0
76f897717d325b35,1551764884986,1088,-6401.0,-8449.0,7423.0,0.0,0.0,0.0,0.0,0.0,0.0,0
76f897717d325b35,1551764885046,1089,-6401.0,-8449.0,7423.0,0.0,0.0,0.0,0.0,0.0,0.0,0
76f897717d325b35,1551764885105,1090,-6401.0,-8193.0,7423.0,0.0,0.0,0.0,0.0,0.0,0.0,0
76f897717d325b35,1551764885196,1091,-6401.0,-8193.0,7423.0,0.0,0.0,0.0,0.0,0.0,0.0,0
76f897717d325b35,1551764885256,1092,-6401.0,-8193.0,7423.0,0.0,0.0,0.0,0.0,0.0,0.0,0
76f897717d325b35,1551764885316,1093,-6401.0,-8193.0,7423.0,0.0,0.0,0.0,0.0,0.0,0.0,0
76f897717d325b35,1551764885375,1094,-6401.0,-8193.0,7423.0,0.0,0.0,0.0,0.0,0.0,0.0,0
76f897717d325b35,1551764885377,1095,-6401.0,-8193.0,7423.0,0.0,0.0,0.0,0.0,0.0,0.0,0
76f897717d325b35,1551764885435,1096,-6401.0,-8193.0,7423.0,0.0,0.0,0.0,0.0,0.0,0.0,0
76f897717d325b35,1551764885526,1097,-6401.0,-8193.0,7423.0,0.0,0.0,0.0,0.0,0.0,0.0,0
76f897717d325b35,1551764885586,1098,-6401.0,-8193.0,7423.0,0.0,0.0,0.0,0.0,0.0,0.0,0
76f897717d325b35,1551764885646,1099,-6401.0,-8193.0,7423.0,0.0,0.0,0.0,0.0,0.0,0.0,0
76f897717d325b35,1551764885705,1100,-6401.0,-8193.0,7423.0,0.0,0.0,0.0,0.0,0.0,0.0,0
76f897717d325b35,1551764885766,1101,-6401.0,-8193.0,7423.0,0.0,0.0,0.0,0.0,0.0,0.0,0
76f897717d325b35,1551764885855,1102,-6401.0,-8449.0,7423.0,0.0,0.0,0.0,0.0,0.0,0.0,0
76f897717d325b35,1551764885916,1103,-6401.0,-8449.0,7423.0,0.0,0.0,0.0,0.0,0.0,0.0,0
76f897717d325b35,1551764885976,1104,-6401.0,-8449.0,7423.0,0.0,0.0,0.0,0.0,0.0,0.0,0
76f897717d325b35,1551764886035,1105,-6401.0,-8193.0,7423.0,0.0,0.0,0.0,0.0,0.0,0.0,0
76f897717d325b35,1551764886096,1106,-6401.0,-8193.0,7423.0,0.0,0.0,0.0,0.0,0.0,0.0,0
76f897717d325b35,1551764886186,1107,-6401.0,-8193.0,7679.0,0.0,0.0,0.0,0.0,0.0,0.0,0
76f897717d325b35,1551764886245,1108,-6401.0,-8449.0,7423.0,0.0,0.0,0.0,0.0,0.0,0.0,0
76f897717d325b35,1551764886305,1109,-6401.0,-8193.0,7423.0,0.0,0.0,0.0,0.0,0.0,0.0,0
76f897717d325b35,1551764886365,1110,-6401.0,-8193.0,7423.0,0.0,0.0,0.0,0.0,0.0,0.0,0
76f897717d325b35,1551764886366,1111,-6401.0,-8193.0,7423.0,0.0,0.0,0.0,0.0,0.0,0.0,0
76f897717d325b35,1551764886426,1112,-6401.0,-8449.0,7423.0,0.0,0.0,0.0,0.0,0.0,0.0,0
76f897717d325b35,1551764886546,1113,-6401.0,-8193.0,7679.0,0.0,0.0,0.0,0.0,0.0,0.0,0
76f897717d325b35,1551764886576,1114,-6401.0,-8193.0,7423.0,0.0,0.0,0.0,0.0,0.0,0.0,0
76f897717d325b35,1551764886635,1115,-6401.0,-8193.0,7423.0,0.0,0.0,0.0,0.0,0.0,0.0,0
76f897717d325b35,1551764886695,1116,-6401.0,-8449.0,7423.0,0.0,0.0,0.0,0.0,0.0,0.0,0
76f897717d325b35,1551764886696,1117,-6401.0,-8449.0,7423.0,0.0,0.0,0.0,0.0,0.0,0.0,0
76f897717d325b35,1551764886756,1118,-6401.0,-8449.0,7423.0,0.0,0.0,0.0,0.0,0.0,0.0,0
76f897717d325b35,1551764886846,1119,-6401.0,-8193.0,7423.0,0.0,0.0,0.0,0.0,0.0,0.0,0
76f897717d325b35,1551764886905,1120,-6401.0,-8193.0,7423.0,0.0,0.0,0.0,0.0,0.0,0.0,0
76f897717d325b35,1551764886966,1121,-6401.0,-8193.0,7423.0,0.0,0.0,0.0,0.0,0.0,0.0,0
76f897717d325b35,1551764887055,1122,-6401.0,-8193.0,7423.0,0.0,0.0,0.0,0.0,0.0,0.0,0
76f897717d325b35,1551764887056,1123,-6401.0,-8193.0,7423.0,0.0,0.0,0.0,0.0,0.0,0.0,0
76f897717d325b35,1551764887086,1124,-6401.0,-8193.0,7423.0,0.0,0.0,0.0,0.0,0.0,0.0,0
76f897717d325b35,1551764887176,1125,-6401.0,-8193.0,7423.0,0.0,0.0,0.0,0.0,0.0,0.0,0
76f897717d325b35,1551764887235,1126,-6401.0,-8193.0,7423.0,0.0,0.0,0.0,0.0,0.0,0.0,0
76f897717d325b35,1551764887296,1127,-6401.0,-8449.0,7423.0,0.0,0.0,0.0,0.0,0.0,0.0,0
76f897717d325b35,1551764887356,1128,-6401.0,-8193.0,7423.0,0.0,0.0,0.0,0.0,0.0,0.0,0
76f897717d325b35,1551764887416,1129,-6401.0,-8449.0,7423.0,0.0,0.0,0.0,0.0,0.0,0.0,0
76f897717d325b35,1551764887505,1130,-6401.0,-8193.0,7423.0,0.0,0.0,0.0,0.0,0.0,0.0,0
76f897717d325b35,1551764887566,1131,-6401.0,-8193.0,7423.0,0.0,0.0,0.0,0.0,0.0,0.0,0
76f897717d325b35,1551764887656,1132,-6401.0,-8449.0,7423.0,0.0,0.0,0.0,0.0,0.0,0.0,0
76f897717d325b35,1551764887716,1133,-6401.0,-8193.0,7423.0,0.0,0.0,0.0,0.0,0.0,0.0,0
76f897717d325b35,1551764887745,1134,-6401.0,-8193.0,7423.0,0.0,0.0,0.0,0.0,0.0,0.0,0
76f897717d325b35,1551764887835,1135,-6401.0,-8449.0,7423.0,0.0,0.0,0.0,0.0,0.0,0.0,0
76f897717d325b35,1551764887896,1136,-6401.0,-8193.0,7423.0,0.0,0.0,0.0,0.0,0.0,0.0,0
76f897717d325b35,1551764887956,1137,-6401.0,-8193.0,7423.0,0.0,0.0,0.0,0.0,0.0,0.0,0
76f897717d325b35,1551764888015,1138,-6401.0,-8193.0,7423.0,0.0,0.0,0.0,0.0,0.0,0.0,0
76f897717d325b35,1551764888076,1139,-6401.0,-8193.0,7423.0,0.0,0.0,0.0,0.0,0.0,0.0,0
76f897717d325b35,1551764888166,1140,-6401.0,-8193.0,7423.0,0.0,0.0,0.0,0.0,0.0,0.0,0
76f897717d325b35,1551764888226,1141,-6401.0,-8193.0,7423.0,0.0,0.0,0.0,0.0,0.0,0.0,0
76f897717d325b35,1551764888286,1142,-6401.0,-8193.0,7423.0,0.0,0.0,0.0,0.0,0.0,0.0,0
76f897717d325b35,1551764888346,1143,-6401.0,-8193.0,7423.0,0.0,0.0,0.0,0.0,0.0,0.0,0
76f897717d325b35,1551764888405,1144,-6401.0,-8193.0,7423.0,0.0,0.0,0.0,0.0,0.0,0.0,0
76f897717d325b35,1551764888495,1145,-6401.0,-8193.0,7423.0,0.0,0.0,0.0,0.0,0.0,0.0,0
76f897717d325b35,1551764888556,1146,-6401.0,-8193.0,7423.0,0.0,0.0,0.0,0.0,0.0,0.0,0
76f897717d325b35,1551764888615,1147,-6401.0,-8449.0,7423.0,0.0,0.0,0.0,0.0,0.0,0.0,0
76f897717d325b35,1551764888676,1148,-6401.0,-8193.0,7423.0,0.0,0.0,0.0,0.0,0.0,0.0,0
76f897717d325b35,1551764888735,1149,-6401.0,-8193.0,7167.0,0.0,0.0,0.0,0.0,0.0,0.0,0
76f897717d325b35,1551764888826,1150,-6401.0,-8449.0,7423.0,0.0,0.0,0.0,0.0,0.0,0.0,0
76f897717d325b35,1551764888886,1151,-6145.0,-8193.0,7167.0,0.0,0.0,0.0,0.0,0.0,0.0,0
76f897717d325b35,1551764888946,1152,-6401.0,-7937.0,7167.0,0.0,0.0,0.0,0.0,0.0,0.0,0
76f897717d325b35,1551764889005,1153,-6145.0,-7937.0,7167.0,0.0,0.0,0.0,0.0,0.0,0.0,0
76f897717d325b35,1551764889007,1154,-6145.0,-7937.0,7167.0,0.0,0.0,0.0,0.0,0.0,0.0,0
76f897717d325b35,1551764889096,1155,-6145.0,-8193.0,7167.0,0.0,0.0,0.0,0.0,0.0,0.0,0
76f897717d325b35,1551764889156,1156,-6145.0,-8193.0,7167.0,0.0,0.0,0.0,0.0,0.0,0.0,0
76f897717d325b35,1551764889216,1157,-6145.0,-8449.0,7167.0,0.0,0.0,0.0,0.0,0.0,0.0,0
76f897717d325b35,1551764889276,1158,-6145.0,-8193.0,7167.0,0.0,0.0,0.0,0.0,0.0,0.0,0
76f897717d325b35,1551764889335,1159,-6145.0,-8193.0,7167.0,0.0,0.0,0.0,0.0,0.0,0.0,0
76f897717d325b35,1551764889336,1160,-6145.0,-8193.0,7167.0,0.0,0.0,0.0,0.0,0.0,0.0,0
76f897717d325b35,1551764889396,1161,-6401.0,-8193.0,7167.0,0.0,0.0,0.0,0.0,0.0,0.0,0
76f897717d325b35,1551764889545,1162,-6145.0,-8193.0,7423.0,0.0,0.0,0.0,0.0,0.0,0.0,0
76f897717d325b35,1551764889546,1163,-6401.0,-8193.0,7423.0,0.0,0.0,0.0,0.0,0.0,0.0,0
76f897717d325b35,1551764889606,1164,-6401.0,-8449.0,7423.0,0.0,0.0,0.0,0.0,0.0,0.0,0
76f897717d325b35,1551764889667,1165,-6401.0,-8193.0,7423.0,0.0,0.0,0.0,0.0,0.0,0.0,0
76f897717d325b35,1551764889668,1166,-6401.0,-8193.0,7423.0,0.0,0.0,0.0,0.0,0.0,0.0,0
76f897717d325b35,1551764889726,1167,-6401.0,-8193.0,7423.0,0.0,0.0,0.0,0.0,0.0,0.0,0
76f897717d325b35,1551764889846,1168,-6401.0,-8193.0,7423.0,0.0,0.0,0.0,0.0,0.0,0.0,0
76f897717d325b35,1551764889905,1169,-6401.0,-8193.0,7423.0,0.0,0.0,0.0,0.0,0.0,0.0,0
76f897717d325b35,1551764889966,1170,-6401.0,-8193.0,7423.0,0.0,0.0,0.0,0.0,0.0,0.0,0
76f897717d325b35,1551764889995,1171,-6401.0,-8449.0,7423.0,0.0,0.0,0.0,0.0,0.0,0.0,0
76f897717d325b35,1551764890145,1172,-6401.0,-8193.0,7423.0,0.0,0.0,0.0,0.0,0.0,0.0,0
76f897717d325b35,1551764890175,1173,-6401.0,-8193.0,7423.0,0.0,0.0,0.0,0.0,0.0,0.0,0
76f897717d325b35,1551764890205,1174,-6401.0,-8449.0,7423.0,0.0,0.0,0.0,0.0,0.0,0.0,0
76f897717d325b35,1551764890266,1175,-6401.0,-8193.0,7423.0,0.0,0.0,0.0,0.0,0.0,0.0,0
76f897717d325b35,1551764890326,1176,-6401.0,-8193.0,7423.0,0.0,0.0,0.0,0.0,0.0,0.0,0
76f897717d325b35,1551764890386,1177,-6401.0,-8193.0,7423.0,0.0,0.0,0.0,0.0,0.0,0.0,0
76f897717d325b35,1551764890476,1178,-6401.0,-8193.0,7423.0,0.0,0.0,0.0,0.0,0.0,0.0,0
76f897717d325b35,1551764890566,1179,-6401.0,-8193.0,7423.0,0.0,0.0,0.0,0.0,0.0,0.0,0
76f897717d325b35,1551764890625,1180,-6401.0,-8193.0,7423.0,0.0,0.0,0.0,0.0,0.0,0.0,0
76f897717d325b35,1551764890656,1181,-6401.0,-8193.0,7423.0,0.0,0.0,0.0,0.0,0.0,0.0,0
76f897717d325b35,1551764890716,1182,-6401.0,-8193.0,7423.0,0.0,0.0,0.0,0.0,0.0,0.0,0
76f897717d325b35,1551764890835,1183,-6401.0,-8193.0,7423.0,0.0,0.0,0.0,0.0,0.0,0.0,0
76f897717d325b35,1551764890866,1184,-6401.0,-8193.0,7423.0,0.0,0.0,0.0,0.0,0.0,0.0,0
76f897717d325b35,1551764890926,1185,-6401.0,-8193.0,7423.0,0.0,0.0,0.0,0.0,0.0,0.0,0
76f897717d325b35,1551764890986,1186,-6401.0,-8193.0,7423.0,0.0,0.0,0.0,0.0,0.0,0.0,0
76f897717d325b35,1551764891166,1187,-6401.0,-8193.0,7167.0,0.0,0.0,0.0,0.0,0.0,0.0,0
76f897717d325b35,1551764891167,1188,-6401.0,-8193.0,7423.0,0.0,0.0,0.0,0.0,0.0,0.0,0
76f897717d325b35,1551764891196,1189,-6401.0,-8193.0,7423.0,0.0,0.0,0.0,0.0,0.0,0.0,0
76f897717d325b35,1551764891255,1190,-6401.0,-8193.0,7423.0,0.0,0.0,0.0,0.0,0.0,0.0,0
76f897717d325b35,1551764891315,1191,-6401.0,-8193.0,7167.0,0.0,0.0,0.0,0.0,0.0,0.0,0
76f897717d325b35,1551764891316,1192,-6401.0,-8193.0,7167.0,0.0,0.0,0.0,0.0,0.0,0.0,0
76f897717d325b35,1551764891375,1193,-6401.0,-8193.0,7167.0,0.0,0.0,0.0,0.0,0.0,0.0,0
76f897717d325b35,1551764891615,1194,-6401.0,-8193.0,7167.0,0.0,0.0,0.0,0.0,0.0,0.0,0
76f897717d325b35,1551764891616,1195,-6401.0,-8193.0,7167.0,0.0,0.0,0.0,0.0,0.0,0.0,0
76f897717d325b35,1551764891617,1196,-6401.0,-8193.0,7423.0,0.0,0.0,0.0,0.0,0.0,0.0,0
76f897717d325b35,1551764891676,1197,-6401.0,-8193.0,7423.0,0.0,0.0,0.0,0.0,0.0,0.0,0
76f897717d325b35,1551764891705,1198,-6401.0,-8193.0,7423.0,0.0,0.0,0.0,0.0,0.0,0.0,0
76f897717d325b35,1551764891826,1199,-6401.0,-8193.0,7423.0,0.0,0.0,0.0,0.0,0.0,0.0,0
76f897717d325b35,1551764891886,1200,-6401.0,-8193.0,7167.0,0.0,0.0,0.0,0.0,0.0,0.0,0
76f897717d325b35,1551764891916,1201,-6401.0,-8449.0,7167.0,0.0,0.0,0.0,0.0,0.0,0.0,0
76f897717d325b35,1551764891976,1202,-6401.0,-8193.0,7167.0,0.0,0.0,0.0,0.0,0.0,0.0,0
76f897717d325b35,1551764892035,1203,-6401.0,-8193.0,7167.0,0.0,0.0,0.0,0.0,0.0,0.0,0
76f897717d325b35,1551764892125,1204,-6401.0,-8193.0,7167.0,0.0,0.0,0.0,0.0,0.0,0.0,0
76f897717d325b35,1551764892186,1205,-6401.0,-8193.0,7167.0,0.0,0.0,0.0,0.0,0.0,0.0,0
76f897717d325b35,1551764892245,1206,-6145.0,-8193.0,7167.0,0.0,0.0,0.0,0.0,0.0,0.0,0
76f897717d325b35,1551764892305,1207,-6401.0,-8193.0,7167.0,0.0,0.0,0.0,0.0,0.0,0.0,0
76f897717d325b35,1551764892306,1208,-6401.0,-8193.0,7167.0,0.0,0.0,0.0,0.0,0.0,0.0,0
76f897717d325b35,1551764892366,1209,-6401.0,-8193.0,7167.0,0.0,0.0,0.0,0.0,0.0,0.0,0
76f897717d325b35,1551764892485,1210,-6401.0,-8193.0,7167.0,0.0,0.0,0.0,0.0,0.0,0.0,0
76f897717d325b35,1551764892516,1211,-6401.0,-8193.0,7423.0,0.0,0.0,0.0,0.0,0.0,0.0,0
76f897717d325b35,1551764892576,1212,-6401.0,-8193.0,7167.0,0.0,0.0,0.0,0.0,0.0,0.0,0
76f897717d325b35,1551764892666,1213,-6401.0,-8193.0,7423.0,0.0,0.0,0.0,0.0,0.0,0.0,0
76f897717d325b35,1551764892726,1214,-6401.0,-8193.0,7167.0,0.0,0.0,0.0,0.0,0.0,0.0,0
76f897717d325b35,1551764892786,1215,-6401.0,-8193.0,7167.0,0.0,0.0,0.0,0.0,0.0,0.0,0
76f897717d325b35,1551764893145,1216,-6401.0,-8193.0,7167.0,0.0,0.0,0.0,0.0,0.0,0.0,0
76f897717d325b35,1551764893205,1217,-6401.0,-8193.0,7167.0,0.0,0.0,0.0,0.0,0.0,0.0,0
76f897717d325b35,1551764893265,1218,-6401.0,-8193.0,7423.0,0.0,0.0,0.0,0.0,0.0,0.0,0
76f897717d325b35,1551764893266,1219,-6401.0,-8193.0,7423.0,0.0,0.0,0.0,0.0,0.0,0.0,0
76f897717d325b35,1551764893267,1220,-6401.0,-8193.0,7423.0,0.0,0.0,0.0,0.0,0.0,0.0,0
76f897717d325b35,1551764893295,1221,-6401.0,-7681.0,7679.0,0.0,0.0,0.0,0.0,0.0,0.0,0
76f897717d325b35,1551764893297,1222,-6657.0,-8449.0,7679.0,0.0,0.0,0.0,0.0,0.0,0.0,0
76f897717d325b35,1551764893299,1223,-6913.0,-8449.0,8447.0,0.0,0.0,0.0,0.0,0.0,0.0,0
76f897717d325b35,1551764893300,1224,-6657.0,-8449.0,8703.0,0.0,0.0,0.0,0.0,0.0,0.0,0
76f897717d325b35,1551764893301,1225,-6657.0,-8449.0,8703.0,0.0,0.0,0.0,0.0,0.0,0.0,0
76f897717d325b35,1551764893356,1226,-6657.0,-8193.0,8959.0,0.0,0.0,0.0,0.0,0.0,0.0,0
76f897717d325b35,1551764893476,1227,-6401.0,-8449.0,9471.0,0.0,0.0,0.0,0.0,0.0,0.0,0
76f897717d325b35,1551764893505,1228,-6401.0,-8449.0,9727.0,0.0,0.0,0.0,0.0,0.0,0.0,0
76f897717d325b35,1551764893596,1229,-6145.0,-8705.0,10239.0,0.0,0.0,0.0,0.0,0.0,0.0,0
76f897717d325b35,1551764893625,1230,-6401.0,-8449.0,10495.0,0.0,0.0,0.0,0.0,0.0,0.0,0
76f897717d325b35,1551764893716,1231,-6401.0,-8449.0,11007.0,0.0,0.0,0.0,0.0,0.0,0.0,0
76f897717d325b35,1551764893835,1232,-6401.0,-7937.0,11263.0,0.0,0.0,0.0,0.0,0.0,0.0,0
76f897717d325b35,1551764893895,1233,-6401.0,-7681.0,11519.0,0.0,0.0,0.0,0.0,0.0,0.0,0
76f897717d325b35,1551764893896,1234,-5889.0,-7681.0,11775.0,0.0,0.0,0.0,0.0,0.0,0.0,0
76f897717d325b35,1551764893986,1235,-5633.0,-7681.0,12543.0,0.0,0.0,0.0,0.0,0.0,0.0,0
76f897717d325b35,1551764894046,1236,-5633.0,-6913.0,13055.0,0.0,0.0,0.0,0.0,0.0,0.0,0
76f897717d325b35,1551764894105,1237,-5633.0,-7169.0,12543.0,0.0,0.0,0.0,0.0,0.0,0.0,0
76f897717d325b35,1551764894166,1238,-4865.0,-7169.0,12799.0,0.0,0.0,0.0,0.0,0.0,0.0,0
76f897717d325b35,1551764894315,1239,-4865.0,-7425.0,12543.0,0.0,0.0,0.0,0.0,0.0,0.0,0
76f897717d325b35,1551764894316,1240,-4865.0,-7681.0,12287.0,0.0,0.0,0.0,0.0,0.0,0.0,0
76f897717d325b35,1551764894346,1241,-4609.0,-8193.0,11775.0,0.0,0.0,0.0,0.0,0.0,0.0,0
76f897717d325b35,1551764894435,1242,-4609.0,-8193.0,11263.0,0.0,0.0,0.0,0.0,0.0,0.0,0
76f897717d325b35,1551764894495,1243,-4865.0,-8193.0,10751.0,0.0,0.0,0.0,0.0,0.0,0.0,0
76f897717d325b35,1551764894555,1244,-4609.0,-7937.0,11007.0,0.0,0.0,0.0,0.0,0.0,0.0,0
76f897717d325b35,1551764894615,1245,-4865.0,-8193.0,10751.0,0.0,0.0,0.0,0.0,0.0,0.0,0
76f897717d325b35,1551764894675,1246,-4609.0,-8193.0,10751.0,0.0,0.0,0.0,0.0,0.0,0.0,0
76f897717d325b35,1551764894766,1247,-4865.0,-8449.0,10495.0,0.0,0.0,0.0,0.0,0.0,0.0,0
76f897717d325b35,1551764894826,1248,-4865.0,-8449.0,10239.0,0.0,0.0,0.0,0.0,0.0,0.0,0
76f897717d325b35,1551764894885,1249,-5121.0,-8193.0,10239.0,0.0,0.0,0.0,0.0,0.0,0.0,0
76f897717d325b35,1551764894946,1250,-5121.0,-8449.0,10495.0,0.0,0.0,0.0,0.0,0.0,0.0,0
76f897717d325b35,1551764895005,1251,-5377.0,-8449.0,10495.0,0.0,0.0,0.0,0.0,0.0,0.0,0
76f897717d325b35,1551764895096,1252,-5121.0,-8193.0,11007.0,0.0,0.0,0.0,0.0,0.0,0.0,0
76f897717d325b35,1551764895156,1253,-5121.0,-8449.0,10495.0,0.0,0.0,0.0,0.0,0.0,0.0,0
76f897717d325b35,1551764895305,1254,-5377.0,-8705.0,10751.0,0.0,0.0,0.0,0.0,0.0,0.0,0
76f897717d325b35,1551764895695,1255,-5121.0,-8705.0,10239.0,0.0,0.0,0.0,0.0,0.0,0.0,0
76f897717d325b35,1551764895785,1256,-5633.0,-8705.0,9727.0,0.0,0.0,0.0,0.0,0.0,0.0,0
76f897717d325b35,1551764895786,1257,-5121.0,-9217.0,10495.0,0.0,0.0,0.0,0.0,0.0,0.0,0
76f897717d325b35,1551764895845,1258,-5121.0,-8705.0,9983.0,0.0,0.0,0.0,0.0,0.0,0.0,0
76f897717d325b35,1551764895846,1259,-5377.0,-8449.0,9983.0,0.0,0.0,0.0,0.0,0.0,0.0,0
76f897717d325b35,1551764895847,1260,-5377.0,-8705.0,9983.0,0.0,0.0,0.0,0.0,0.0,0.0,0
76f897717d325b35,1551764895848,1261,-5633.0,-8705.0,9983.0,0.0,0.0,0.0,0.0,0.0,0.0,0
76f897717d325b35,1551764895849,1262,-5633.0,-8705.0,9983.0,0.0,0.0,0.0,0.0,0.0,0.0,0
76f897717d325b35,1551764895850,1263,-5633.0,-8705.0,9727.0,0.0,0.0,0.0,0.0,0.0,0.0,0
76f897717d325b35,1551764895905,1264,-5633.0,-8705.0,9983.0,0.0,0.0,0.0,0.0,0.0,0.0,0
76f897717d325b35,1551764896385,1265,-5377.0,-8705.0,9983.0,0.0,0.0,0.0,0.0,0.0,0.0,0
76f897717d325b35,1551764896414,1266,-5377.0,-8705.0,9983.0,0.0,0.0,0.0,0.0,0.0,0.0,0
76f897717d325b35,1551764896416,1267,-5377.0,-8705.0,9727.0,0.0,0.0,0.0,0.0,0.0,0.0,0
76f897717d325b35,1551764896417,1268,-5633.0,-8705.0,9727.0,0.0,0.0,0.0,0.0,0.0,0.0,0
76f897717d325b35,1551764896419,1269,-5377.0,-8705.0,9727.0,0.0,0.0,0.0,0.0,0.0,0.0,0
76f897717d325b35,1551764896420,1270,-5377.0,-8705.0,9727.0,0.0,0.0,0.0,0.0,0.0,0.0,0
76f897717d325b35,1551764896476,1271,-5377.0,-8705.0,9727.0,0.0,0.0,0.0,0.0,0.0,0.0,0
76f897717d325b35,1551764896535,1272,-5377.0,-8705.0,9727.0,0.0,0.0,0.0,0.0,0.0,0.0,0
76f897717d325b35,1551764896595,1273,-5377.0,-8705.0,9727.0,0.0,0.0,0.0,0.0,0.0,0.0,0
76f897717d325b35,1551764896655,1274,-5377.0,-8705.0,9983.0,0.0,0.0,0.0,0.0,0.0,0.0,0
76f897717d325b35,1551764896745,1275,-5377.0,-8961.0,9983.0,0.0,0.0,0.0,0.0,0.0,0.0,0
76f897717d325b35,1551764896805,1276,-5377.0,-8705.0,9983.0,0.0,0.0,0.0,0.0,0.0,0.0,0
76f897717d325b35,1551764896865,1277,-5377.0,-8961.0,9727.0,0.0,0.0,0.0,0.0,0.0,0.0,0
76f897717d325b35,1551764896925,1278,-5633.0,-8705.0,9471.0,0.0,0.0,0.0,0.0,0.0,0.0,0
76f897717d325b35,1551764896986,1279,-5377.0,-8961.0,9471.0,0.0,0.0,0.0,0.0,0.0,0.0,0
76f897717d325b35,1551764897076,1280,-5377.0,-8705.0,9471.0,0.0,0.0,0.0,0.0,0.0,0.0,0
76f897717d325b35,1551764897135,1281,-5377.0,-8705.0,9215.0,0.0,0.0,0.0,0.0,0.0,0.0,0
76f897717d325b35,1551764897196,1282,-5377.0,-8961.0,9215.0,0.0,0.0,0.0,0.0,0.0,0.0,0
76f897717d325b35,1551764897255,1283,-5377.0,-8961.0,9215.0,0.0,0.0,0.0,0.0,0.0,0.0,0
76f897717d325b35,1551764897315,1284,-5377.0,-8705.0,9215.0,0.0,0.0,0.0,0.0,0.0,0.0,0
76f897717d325b35,1551764897405,1285,-5377.0,-8705.0,9215.0,0.0,0.0,0.0,0.0,0.0,0.0,0
76f897717d325b35,1551764897465,1286,-5377.0,-8961.0,9215.0,0.0,0.0,0.0,0.0,0.0,0.0,0
76f897717d325b35,1551764897526,1287,-5377.0,-8705.0,9215.0,0.0,0.0,0.0,0.0,0.0,0.0,0
76f897717d325b35,1551764897585,1288,-5377.0,-8705.0,9215.0,0.0,0.0,0.0,0.0,0.0,0.0,0
76f897717d325b35,1551764897645,1289,-5377.0,-8961.0,9215.0,0.0,0.0,0.0,0.0,0.0,0.0,0
76f897717d325b35,1551764897735,1290,-5377.0,-8961.0,9215.0,0.0,0.0,0.0,0.0,0.0,0.0,0
76f897717d325b35,1551764897795,1291,-5377.0,-8705.0,9215.0,0.0,0.0,0.0,0.0,0.0,0.0,0
76f897717d325b35,1551764897855,1292,-5377.0,-8961.0,9215.0,0.0,0.0,0.0,0.0,0.0,0.0,0
76f897717d325b35,1551764898555,1293,-5377.0,-8705.0,9215.0,0.0,0.0,0.0,0.0,0.0,0.0,0
76f897717d325b35,1551764898615,1294,-5377.0,-8961.0,9215.0,0.0,0.0,0.0,0.0,0.0,0.0,0
76f897717d325b35,1551764898675,1295,-5377.0,-8961.0,9215.0,0.0,0.0,0.0,0.0,0.0,0.0,0
76f897717d325b35,1551764898765,1296,-5377.0,-8961.0,8959.0,0.0,0.0,0.0,0.0,0.0,0.0,0
76f897717d325b35,1551764898825,1297,-5377.0,-8961.0,8959.0,0.0,0.0,0.0,0.0,0.0,0.0,0
76f897717d325b35,1551764898885,1298,-5377.0,-8961.0,8959.0,0.0,0.0,0.0,0.0,0.0,0.0,0
76f897717d325b35,1551764898945,1299,-5377.0,-8961.0,9215.0,0.0,0.0,0.0,0.0,0.0,0.0,0
76f897717d325b35,1551764899005,1300,-5377.0,-8705.0,8959.0,0.0,0.0,0.0,0.0,0.0,0.0,0
76f897717d325b35,1551764899095,1301,-5377.0,-8961.0,8959.0,0.0,0.0,0.0,0.0,0.0,0.0,0
76f897717d325b35,1551764899155,1302,-5377.0,-8961.0,9215.0,0.0,0.0,0.0,0.0,0.0,0.0,0
76f897717d325b35,1551764899215,1303,-5377.0,-8961.0,9215.0,0.0,0.0,0.0,0.0,0.0,0.0,0
76f897717d325b35,1551764899275,1304,-5377.0,-8961.0,9215.0,0.0,0.0,0.0,0.0,0.0,0.0,0
76f897717d325b35,1551764899335,1305,-5377.0,-8961.0,9215.0,0.0,0.0,0.0,0.0,0.0,0.0,0
76f897717d325b35,1551764899425,1306,-5377.0,-8961.0,8959.0,0.0,0.0,0.0,0.0,0.0,0.0,0
76f897717d325b35,1551764899485,1307,-5377.0,-8961.0,9215.0,0.0,0.0,0.0,0.0,0.0,0.0,0
76f897717d325b35,1551764899545,1308,-5377.0,-8961.0,9215.0,0.0,0.0,0.0,0.0,0.0,0.0,0
76f897717d325b35,1551764899606,1309,-5377.0,-8961.0,9215.0,0.0,0.0,0.0,0.0,0.0,0.0,0
76f897717d325b35,1551764899665,1310,-5377.0,-8961.0,9215.0,0.0,0.0,0.0,0.0,0.0,0.0,0
76f897717d325b35,1551764899755,1311,-5377.0,-8705.0,9215.0,0.0,0.0,0.0,0.0,0.0,0.0,0
76f897717d325b35,1551764899816,1312,-5377.0,-8961.0,9215.0,0.0,0.0,0.0,0.0,0.0,0.0,0
76f897717d325b35,1551764899875,1313,-5377.0,-8961.0,9215.0,0.0,0.0,0.0,0.0,0.0,0.0,0
76f897717d325b35,1551764899935,1314,-5377.0,-8961.0,9215.0,0.0,0.0,0.0,0.0,0.0,0.0,0
76f897717d325b35,1551764899995,1315,-5377.0,-8961.0,9215.0,0.0,0.0,0.0,0.0,0.0,0.0,0
76f897717d325b35,1551764900084,1316,-5377.0,-8961.0,9215.0,0.0,0.0,0.0,0.0,0.0,0.0,0
76f897717d325b35,1551764900145,1317,-5377.0,-8961.0,9215.0,0.0,0.0,0.0,0.0,0.0,0.0,0
76f897717d325b35,1551764900205,1318,-5377.0,-8961.0,9215.0,0.0,0.0,0.0,0.0,0.0,0.0,0
76f897717d325b35,1551764900265,1319,-5377.0,-8705.0,9215.0,0.0,0.0,0.0,0.0,0.0,0.0,0
76f897717d325b35,1551764900325,1320,-5377.0,-8961.0,9215.0,0.0,0.0,0.0,0.0,0.0,0.0,0
76f897717d325b35,1551764900415,1321,-5377.0,-8961.0,9215.0,0.0,0.0,0.0,0.0,0.0,0.0,0
76f897717d325b35,1551764900505,1322,-5377.0,-8961.0,9215.0,0.0,0.0,0.0,0.0,0.0,0.0,0
76f897717d325b35,1551764900535,1323,-5377.0,-8705.0,9215.0,0.0,0.0,0.0,0.0,0.0,0.0,0
76f897717d325b35,1551764900595,1324,-5377.0,-8961.0,9215.0,0.0,0.0,0.0,0.0,0.0,0.0,0
76f897717d325b35,1551764900655,1325,-5377.0,-8961.0,9215.0,0.0,0.0,0.0,0.0,0.0,0.0,0
76f897717d325b35,1551764900745,1326,-5377.0,-8961.0,9215.0,0.0,0.0,0.0,0.0,0.0,0.0,0
76f897717d325b35,1551764900805,1327,-5377.0,-8705.0,9215.0,0.0,0.0,0.0,0.0,0.0,0.0,0
76f897717d325b35,1551764900895,1328,-5377.0,-8961.0,9215.0,0.0,0.0,0.0,0.0,0.0,0.0,0
76f897717d325b35,1551764900925,1329,-5377.0,-8961.0,9215.0,0.0,0.0,0.0,0.0,0.0,0.0,0
76f897717d325b35,1551764900985,1330,-5377.0,-8961.0,9215.0,0.0,0.0,0.0,0.0,0.0,0.0,0
76f897717d325b35,1551764901076,1331,-5377.0,-8961.0,8959.0,0.0,0.0,0.0,0.0,0.0,0.0,0
76f897717d325b35,1551764901135,1332,-5377.0,-8961.0,9215.0,0.0,0.0,0.0,0.0,0.0,0.0,0
76f897717d325b35,1551764901195,1333,-5377.0,-8961.0,8959.0,0.0,0.0,0.0,0.0,0.0,0.0,0
76f897717d325b35,1551764901285,1334,-5377.0,-8961.0,8959.0,0.0,0.0,0.0,0.0,0.0,0.0,0
76f897717d325b35,1551764901315,1335,-5377.0,-8705.0,8959.0,0.0,0.0,0.0,0.0,0.0,0.0,0
76f897717d325b35,1551764901405,1336,-5377.0,-8961.0,9215.0,0.0,0.0,0.0,0.0,0.0,0.0,0
76f897717d325b35,1551764901465,1337,-5377.0,-8705.0,9215.0,0.0,0.0,0.0,0.0,0.0,0.0,0
76f897717d325b35,1551764901525,1338,-5377.0,-8961.0,8959.0,0.0,0.0,0.0,0.0,0.0,0.0,0
76f897717d325b35,1551764901585,1339,-5377.0,-8705.0,8959.0,0.0,0.0,0.0,0.0,0.0,0.0,0
76f897717d325b35,1551764901645,1340,-5377.0,-8961.0,8959.0,0.0,0.0,0.0,0.0,0.0,0.0,0
76f897717d325b35,1551764901735,1341,-5377.0,-8961.0,8959.0,0.0,0.0,0.0,0.0,0.0,0.0,0
76f897717d325b35,1551764901795,1342,-5377.0,-8961.0,8959.0,0.0,0.0,0.0,0.0,0.0,0.0,0
76f897717d325b35,1551764901855,1343,-5377.0,-8961.0,9215.0,0.0,0.0,0.0,0.0,0.0,0.0,0
76f897717d325b35,1551764901915,1344,-5377.0,-8961.0,9215.0,0.0,0.0,0.0,0.0,0.0,0.0,0
76f897717d325b35,1551764901975,1345,-5377.0,-8961.0,8959.0,0.0,0.0,0.0,0.0,0.0,0.0,0
76f897717d325b35,1551764902065,1346,-5377.0,-8961.0,8959.0,0.0,0.0,0.0,0.0,0.0,0.0,0
76f897717d325b35,1551764902125,1347,-5377.0,-8961.0,9215.0,0.0,0.0,0.0,0.0,0.0,0.0,0
76f897717d325b35,1551764902185,1348,-5377.0,-8961.0,9215.0,0.0,0.0,0.0,0.0,0.0,0.0,0
76f897717d325b35,1551764902244,1349,-5377.0,-8961.0,8959.0,0.0,0.0,0.0,0.0,0.0,0.0,0
76f897717d325b35,1551764902305,1350,-5377.0,-8961.0,9215.0,0.0,0.0,0.0,0.0,0.0,0.0,0
76f897717d325b35,1551764902395,1351,-5377.0,-8961.0,8959.0,0.0,0.0,0.0,0.0,0.0,0.0,0
76f897717d325b35,1551764902455,1352,-5377.0,-8961.0,8959.0,0.0,0.0,0.0,0.0,0.0,0.0,0
76f897717d325b35,1551764902515,1353,-5377.0,-8961.0,8959.0,0.0,0.0,0.0,0.0,0.0,0.0,0
76f897717d325b35,1551764902575,1354,-5377.0,-8961.0,8959.0,0.0,0.0,0.0,0.0,0.0,0.0,0
76f897717d325b35,1551764902635,1355,-5377.0,-8961.0,9215.0,0.0,0.0,0.0,0.0,0.0,0.0,0
76f897717d325b35,1551764902725,1356,-5377.0,-8705.0,9215.0,0.0,0.0,0.0,0.0,0.0,0.0,0
76f897717d325b35,1551764902815,1357,-5377.0,-8961.0,8959.0,0.0,0.0,0.0,0.0,0.0,0.0,0
76f897717d325b35,1551764902816,1358,-5377.0,-8961.0,8959.0,0.0,0.0,0.0,0.0,0.0,0.0,0
76f897717d325b35,1551764902845,1359,-5377.0,-8961.0,8959.0,0.0,0.0,0.0,0.0,0.0,0.0,0
76f897717d325b35,1551764902905,1360,-5377.0,-8705.0,9215.0,0.0,0.0,0.0,0.0,0.0,0.0,0
76f897717d325b35,1551764902965,1361,-5377.0,-8705.0,8959.0,0.0,0.0,0.0,0.0,0.0,0.0,0
76f897717d325b35,1551764903056,1362,-5377.0,-8961.0,9215.0,0.0,0.0,0.0,0.0,0.0,0.0,0
76f897717d325b35,1551764903115,1363,-5377.0,-8961.0,8959.0,0.0,0.0,0.0,0.0,0.0,0.0,0
76f897717d325b35,1551764903175,1364,-5377.0,-8705.0,8959.0,0.0,0.0,0.0,0.0,0.0,0.0,0
76f897717d325b35,1551764903235,1365,-5377.0,-8961.0,8959.0,0.0,0.0,0.0,0.0,0.0,0.0,0
76f897717d325b35,1551764903295,1366,-5377.0,-8961.0,8959.0,0.0,0.0,0.0,0.0,0.0,0.0,0
76f897717d325b35,1551764903385,1367,-5377.0,-8705.0,8959.0,0.0,0.0,0.0,0.0,0.0,0.0,0
76f897717d325b35,1551764903445,1368,-5377.0,-8961.0,8959.0,0.0,0.0,0.0,0.0,0.0,0.0,0
76f897717d325b35,1551764903505,1369,-5377.0,-8961.0,8959.0,0.0,0.0,0.0,0.0,0.0,0.0,0
76f897717d325b35,1551764903565,1370,-5377.0,-8961.0,8959.0,0.0,0.0,0.0,0.0,0.0,0.0,0
76f897717d325b35,1551764903625,1371,-5377.0,-8961.0,8959.0,0.0,0.0,0.0,0.0,0.0,0.0,0
76f897717d325b35,1551764903715,1372,-5377.0,-8705.0,9215.0,0.0,0.0,0.0,0.0,0.0,0.0,0
76f897717d325b35,1551764903775,1373,-5377.0,-8961.0,9215.0,0.0,0.0,0.0,0.0,0.0,0.0,0
76f897717d325b35,1551764903835,1374,-5377.0,-8705.0,8959.0,0.0,0.0,0.0,0.0,0.0,0.0,0
76f897717d325b35,1551764903895,1375,-5377.0,-8705.0,9215.0,0.0,0.0,0.0,0.0,0.0,0.0,0
76f897717d325b35,1551764903955,1376,-5377.0,-8961.0,9215.0,0.0,0.0,0.0,0.0,0.0,0.0,0
76f897717d325b35,1551764904045,1377,-5377.0,-8705.0,9215.0,0.0,0.0,0.0,0.0,0.0,0.0,0
76f897717d325b35,1551764904105,1378,-5377.0,-8705.0,9215.0,0.0,0.0,0.0,0.0,0.0,0.0,0
76f897717d325b35,1551764904195,1379,-5377.0,-8961.0,9215.0,0.0,0.0,0.0,0.0,0.0,0.0,0
76f897717d325b35,1551764904225,1380,-5377.0,-8961.0,9215.0,0.0,0.0,0.0,0.0,0.0,0.0,0
76f897717d325b35,1551764904286,1381,-5377.0,-8961.0,9215.0,0.0,0.0,0.0,0.0,0.0,0.0,0
76f897717d325b35,1551764904375,1382,-5377.0,-8705.0,9215.0,0.0,0.0,0.0,0.0,0.0,0.0,0
76f897717d325b35,1551764904435,1383,-5377.0,-8961.0,9215.0,0.0,0.0,0.0,0.0,0.0,0.0,0
76f897717d325b35,1551764904495,1384,-5377.0,-8961.0,9215.0,0.0,0.0,0.0,0.0,0.0,0.0,0
76f897717d325b35,1551764904555,1385,-5377.0,-8961.0,9215.0,0.0,0.0,0.0,0.0,0.0,0.0,0
76f897717d325b35,1551764904615,1386,-5377.0,-8961.0,9215.0,0.0,0.0,0.0,0.0,0.0,0.0,0
76f897717d325b35,1551764904705,1387,-5377.0,-8705.0,9215.0,0.0,0.0,0.0,0.0,0.0,0.0,0
76f897717d325b35,1551764904765,1388,-5377.0,-8705.0,9215.0,0.0,0.0,0.0,0.0,0.0,0.0,0
76f897717d325b35,1551764904825,1389,-5377.0,-8961.0,9215.0,0.0,0.0,0.0,0.0,0.0,0.0,0
76f897717d325b35,1551764904885,1390,-5377.0,-8705.0,9215.0,0.0,0.0,0.0,0.0,0.0,0.0,0
76f897717d325b35,1551764904945,1391,-5377.0,-8961.0,9215.0,0.0,0.0,0.0,0.0,0.0,0.0,0
76f897717d325b35,1551764905035,1392,-5377.0,-8961.0,9215.0,0.0,0.0,0.0,0.0,0.0,0.0,0
76f897717d325b35,1551764905094,1393,-5377.0,-8961.0,9215.0,0.0,0.0,0.0,0.0,0.0,0.0,0
76f897717d325b35,1551764905155,1394,-5377.0,-8961.0,9215.0,0.0,0.0,0.0,0.0,0.0,0.0,0
76f897717d325b35,1551764905215,1395,-5377.0,-8961.0,9215.0,0.0,0.0,0.0,0.0,0.0,0.0,0
76f897717d325b35,1551764905275,1396,-5377.0,-8961.0,9215.0,0.0,0.0,0.0,0.0,0.0,0.0,0
76f897717d325b35,1551764905365,1397,-5377.0,-8705.0,8959.0,0.0,0.0,0.0,0.0,0.0,0.0,0
76f897717d325b35,1551764905425,1398,-5377.0,-8961.0,8959.0,0.0,0.0,0.0,0.0,0.0,0.0,0
76f897717d325b35,1551764905485,1399,-5377.0,-8961.0,8959.0,0.0,0.0,0.0,0.0,0.0,0.0,0
76f897717d325b35,1551764905545,1400,-5377.0,-8961.0,8959.0,0.0,0.0,0.0,0.0,0.0,0.0,0
76f897717d325b35,1551764905605,1401,-5377.0,-8961.0,8959.0,0.0,0.0,0.0,0.0,0.0,0.0,0
76f897717d325b35,1551764905695,1402,-5377.0,-8961.0,8959.0,0.0,0.0,0.0,0.0,0.0,0.0,0
76f897717d325b35,1551764905755,1403,-5377.0,-8961.0,8959.0,0.0,0.0,0.0,0.0,0.0,0.0,0
76f897717d325b35,1551764905815,1404,-5377.0,-8705.0,8959.0,0.0,0.0,0.0,0.0,0.0,0.0,0
76f897717d325b35,1551764905875,1405,-5377.0,-8961.0,8959.0,0.0,0.0,0.0,0.0,0.0,0.0,0
76f897717d325b35,1551764905935,1406,-5377.0,-8961.0,9215.0,0.0,0.0,0.0,0.0,0.0,0.0,0
76f897717d325b35,1551764906025,1407,-5377.0,-8961.0,8959.0,0.0,0.0,0.0,0.0,0.0,0.0,0
76f897717d325b35,1551764906084,1408,-5377.0,-8961.0,8959.0,0.0,0.0,0.0,0.0,0.0,0.0,0
76f897717d325b35,1551764906145,1409,-5377.0,-8961.0,8959.0,0.0,0.0,0.0,0.0,0.0,0.0,0
76f897717d325b35,1551764906205,1410,-5377.0,-8961.0,8959.0,0.0,0.0,0.0,0.0,0.0,0.0,0
76f897717d325b35,1551764906265,1411,-5377.0,-8961.0,8959.0,0.0,0.0,0.0,0.0,0.0,0.0,0
76f897717d325b35,1551764906385,1412,-5377.0,-8961.0,8959.0,0.0,0.0,0.0,0.0,0.0,0.0,0
76f897717d325b35,1551764906414,1413,-5377.0,-8961.0,9215.0,0.0,0.0,0.0,0.0,0.0,0.0,0
76f897717d325b35,1551764906416,1414,-5377.0,-8961.0,9215.0,0.0,0.0,0.0,0.0,0.0,0.0,0
76f897717d325b35,1551764906475,1415,-5377.0,-8961.0,9215.0,0.0,0.0,0.0,0.0,0.0,0.0,0
76f897717d325b35,1551764906535,1416,-5377.0,-8961.0,8959.0,0.0,0.0,0.0,0.0,0.0,0.0,0
76f897717d325b35,1551764906595,1417,-5377.0,-8705.0,8959.0,0.0,0.0,0.0,0.0,0.0,0.0,0
76f897717d325b35,1551764906685,1418,-5377.0,-8961.0,8959.0,0.0,0.0,0.0,0.0,0.0,0.0,0
