2562-03-05 122335,,,,,,,,,,,,
Start Time,2562/03/05 12:23:35,Timestamp,1551763415969,,,,,,,,,
sensor ID,timestamp (ms),Sample Count,acc_x,acc_y,acc_z,gyro_x,gyro_y,gyro_z,mag_x,mag_y,mag_z,mark
76f897717d325b35,1551763416009,1,-6401.0,-8449.0,10495.0,0.0,0.0,0.0,0.0,0.0,0.0,0
76f897717d325b35,1551763416008,0,,,,,,,,,,0
76f897717d325b35,1551763416008,0,,,,,,,,,,0
76f897717d325b35,1551763416008,1,-6401.0,-8449.0,10495.0,0.0,0.0,0.0,0.0,0.0,0.0,0
76f897717d325b35,1551763416068,2,-6401.0,-8449.0,10495.0,0.0,0.0,0.0,0.0,0.0,0.0,0
76f897717d325b35,1551763416158,3,-6401.0,-8449.0,10495.0,0.0,0.0,0.0,0.0,0.0,0.0,0
76f897717d325b35,1551763416219,4,-6401.0,-8449.0,10495.0,0.0,0.0,0.0,0.0,0.0,0.0,0
76f897717d325b35,1551763416279,5,-6401.0,-8449.0,10495.0,0.0,0.0,0.0,0.0,0.0,0.0,0
76f897717d325b35,1551763416340,6,-6401.0,-8193.0,10495.0,0.0,0.0,0.0,0.0,0.0,0.0,0
76f897717d325b35,1551763416399,7,-6657.0,-8193.0,10495.0,0.0,0.0,0.0,0.0,0.0,0.0,0
76f897717d325b35,1551763416459,8,-6657.0,-8449.0,10495.0,0.0,0.0,0.0,0.0,0.0,0.0,0
76f897717d325b35,1551763416549,9,-6401.0,-8193.0,10495.0,0.0,0.0,0.0,0.0,0.0,0.0,0
76f897717d325b35,1551763416669,10,-6657.0,-8193.0,10495.0,0.0,0.0,0.0,0.0,0.0,0.0,0
76f897717d325b35,1551763416670,11,-6657.0,-8193.0,10495.0,0.0,0.0,0.0,0.0,0.0,0.0,0
76f897717d325b35,1551763416759,12,-6657.0,-8193.0,10495.0,0.0,0.0,0.0,0.0,0.0,0.0,0
76f897717d325b35,1551763416789,13,-6657.0,-8193.0,10495.0,0.0,0.0,0.0,0.0,0.0,0.0,0
76f897717d325b35,1551763416879,14,-6657.0,-8193.0,10495.0,0.0,0.0,0.0,0.0,0.0,0.0,0
76f897717d325b35,1551763416939,15,-6657.0,-8193.0,10495.0,0.0,0.0,0.0,0.0,0.0,0.0,0
76f897717d325b35,1551763416999,16,-6657.0,-8193.0,10495.0,0.0,0.0,0.0,0.0,0.0,0.0,0
76f897717d325b35,1551763417059,17,-6657.0,-8193.0,10495.0,0.0,0.0,0.0,0.0,0.0,0.0,0
76f897717d325b35,1551763417149,18,-6657.0,-8193.0,10495.0,0.0,0.0,0.0,0.0,0.0,0.0,0
76f897717d325b35,1551763417209,19,-6657.0,-8193.0,10495.0,0.0,0.0,0.0,0.0,0.0,0.0,0
76f897717d325b35,1551763417269,20,-6657.0,-8193.0,10751.0,0.0,0.0,0.0,0.0,0.0,0.0,0
76f897717d325b35,1551763417359,21,-6657.0,-8193.0,10495.0,0.0,0.0,0.0,0.0,0.0,0.0,0
76f897717d325b35,1551763417389,22,-6657.0,-8193.0,10495.0,0.0,0.0,0.0,0.0,0.0,0.0,0
76f897717d325b35,1551763417479,23,-6657.0,-8193.0,10495.0,0.0,0.0,0.0,0.0,0.0,0.0,0
76f897717d325b35,1551763417598,24,-6657.0,-8193.0,10495.0,0.0,0.0,0.0,0.0,0.0,0.0,0
76f897717d325b35,1551763417600,25,-6657.0,-8193.0,10495.0,0.0,0.0,0.0,0.0,0.0,0.0,0
76f897717d325b35,1551763417659,26,-6657.0,-8193.0,10495.0,0.0,0.0,0.0,0.0,0.0,0.0,0
76f897717d325b35,1551763417719,27,-6657.0,-8193.0,10495.0,0.0,0.0,0.0,0.0,0.0,0.0,0
76f897717d325b35,1551763417809,28,-6657.0,-8193.0,10495.0,0.0,0.0,0.0,0.0,0.0,0.0,0
76f897717d325b35,1551763417869,29,-6657.0,-8193.0,10495.0,0.0,0.0,0.0,0.0,0.0,0.0,0
76f897717d325b35,1551763417929,30,-6657.0,-8193.0,10495.0,0.0,0.0,0.0,0.0,0.0,0.0,0
76f897717d325b35,1551763417989,31,-6657.0,-8193.0,10495.0,0.0,0.0,0.0,0.0,0.0,0.0,0
76f897717d325b35,1551763418049,32,-6657.0,-8193.0,10495.0,0.0,0.0,0.0,0.0,0.0,0.0,0
76f897717d325b35,1551763418139,33,-6657.0,-8193.0,10495.0,0.0,0.0,0.0,0.0,0.0,0.0,0
76f897717d325b35,1551763418199,34,-6657.0,-8193.0,10495.0,0.0,0.0,0.0,0.0,0.0,0.0,0
76f897717d325b35,1551763418259,35,-6657.0,-8193.0,10495.0,0.0,0.0,0.0,0.0,0.0,0.0,0
76f897717d325b35,1551763418319,36,-6657.0,-8193.0,10495.0,0.0,0.0,0.0,0.0,0.0,0.0,0
76f897717d325b35,1551763418379,37,-6657.0,-8193.0,10495.0,0.0,0.0,0.0,0.0,0.0,0.0,0
76f897717d325b35,1551763418469,38,-6657.0,-8193.0,10495.0,0.0,0.0,0.0,0.0,0.0,0.0,0
76f897717d325b35,1551763418529,39,-6657.0,-8193.0,10495.0,0.0,0.0,0.0,0.0,0.0,0.0,0
76f897717d325b35,1551763418589,40,-6657.0,-8449.0,10495.0,0.0,0.0,0.0,0.0,0.0,0.0,0
76f897717d325b35,1551763418649,41,-6657.0,-8193.0,10495.0,0.0,0.0,0.0,0.0,0.0,0.0,0
76f897717d325b35,1551763418709,42,-6657.0,-8193.0,10495.0,0.0,0.0,0.0,0.0,0.0,0.0,0
76f897717d325b35,1551763418829,43,-6657.0,-8449.0,10495.0,0.0,0.0,0.0,0.0,0.0,0.0,0
76f897717d325b35,1551763418859,44,-6657.0,-8193.0,10495.0,0.0,0.0,0.0,0.0,0.0,0.0,0
76f897717d325b35,1551763418919,45,-6657.0,-8193.0,10495.0,0.0,0.0,0.0,0.0,0.0,0.0,0
76f897717d325b35,1551763418979,46,-6657.0,-8193.0,10495.0,0.0,0.0,0.0,0.0,0.0,0.0,0
76f897717d325b35,1551763419039,47,-6657.0,-8193.0,10495.0,0.0,0.0,0.0,0.0,0.0,0.0,0
76f897717d325b35,1551763419129,48,-6657.0,-8193.0,10495.0,0.0,0.0,0.0,0.0,0.0,0.0,0
76f897717d325b35,1551763419189,49,-6657.0,-8193.0,10495.0,0.0,0.0,0.0,0.0,0.0,0.0,0
76f897717d325b35,1551763419249,50,-6657.0,-8193.0,10495.0,0.0,0.0,0.0,0.0,0.0,0.0,0
76f897717d325b35,1551763419309,51,-6401.0,-8193.0,10495.0,0.0,0.0,0.0,0.0,0.0,0.0,0
76f897717d325b35,1551763419369,52,-6401.0,-8193.0,10495.0,0.0,0.0,0.0,0.0,0.0,0.0,0
76f897717d325b35,1551763419459,53,-6657.0,-8449.0,10495.0,0.0,0.0,0.0,0.0,0.0,0.0,0
76f897717d325b35,1551763419519,54,-6657.0,-8193.0,10495.0,0.0,0.0,0.0,0.0,0.0,0.0,0
76f897717d325b35,1551763419579,55,-6401.0,-8449.0,10495.0,0.0,0.0,0.0,0.0,0.0,0.0,0
76f897717d325b35,1551763419639,56,-6657.0,-8193.0,10495.0,0.0,0.0,0.0,0.0,0.0,0.0,0
76f897717d325b35,1551763419699,57,-6657.0,-8193.0,10495.0,0.0,0.0,0.0,0.0,0.0,0.0,0
76f897717d325b35,1551763419789,58,-6657.0,-8193.0,10495.0,0.0,0.0,0.0,0.0,0.0,0.0,0
76f897717d325b35,1551763419849,59,-6657.0,-8193.0,10495.0,0.0,0.0,0.0,0.0,0.0,0.0,0
76f897717d325b35,1551763419909,60,-6657.0,-8193.0,10495.0,0.0,0.0,0.0,0.0,0.0,0.0,0
76f897717d325b35,1551763419969,61,-6657.0,-8193.0,10495.0,0.0,0.0,0.0,0.0,0.0,0.0,0
76f897717d325b35,1551763420029,62,-6657.0,-8193.0,10495.0,0.0,0.0,0.0,0.0,0.0,0.0,0
76f897717d325b35,1551763420149,63,-6657.0,-8193.0,10495.0,0.0,0.0,0.0,0.0,0.0,0.0,0
76f897717d325b35,1551763420179,64,-6657.0,-8193.0,10495.0,0.0,0.0,0.0,0.0,0.0,0.0,0
76f897717d325b35,1551763420269,65,-6657.0,-8193.0,10495.0,0.0,0.0,0.0,0.0,0.0,0.0,0
76f897717d325b35,1551763420299,66,-6657.0,-8449.0,10495.0,0.0,0.0,0.0,0.0,0.0,0.0,0
76f897717d325b35,1551763420359,67,-6657.0,-8193.0,10495.0,0.0,0.0,0.0,0.0,0.0,0.0,0
76f897717d325b35,1551763420449,68,-6657.0,-8193.0,10495.0,0.0,0.0,0.0,0.0,0.0,0.0,0
76f897717d325b35,1551763420509,69,-6657.0,-8193.0,10495.0,0.0,0.0,0.0,0.0,0.0,0.0,0
76f897717d325b35,1551763420599,70,-6657.0,-8193.0,10495.0,0.0,0.0,0.0,0.0,0.0,0.0,0
76f897717d325b35,1551763420659,71,-6657.0,-8193.0,10495.0,0.0,0.0,0.0,0.0,0.0,0.0,0
76f897717d325b35,1551763420689,72,-6657.0,-8193.0,10495.0,0.0,0.0,0.0,0.0,0.0,0.0,0
76f897717d325b35,1551763420779,73,-6657.0,-8193.0,10495.0,0.0,0.0,0.0,0.0,0.0,0.0,0
76f897717d325b35,1551763420839,74,-6657.0,-8193.0,10495.0,0.0,0.0,0.0,0.0,0.0,0.0,0
76f897717d325b35,1551763420899,75,-6657.0,-8193.0,10495.0,0.0,0.0,0.0,0.0,0.0,0.0,0
76f897717d325b35,1551763420959,76,-6657.0,-8449.0,10495.0,0.0,0.0,0.0,0.0,0.0,0.0,0
76f897717d325b35,1551763421019,77,-6657.0,-8193.0,10495.0,0.0,0.0,0.0,0.0,0.0,0.0,0
76f897717d325b35,1551763421169,78,-6657.0,-8193.0,10495.0,0.0,0.0,0.0,0.0,0.0,0.0,0
76f897717d325b35,1551763421170,79,-6657.0,-8193.0,10495.0,0.0,0.0,0.0,0.0,0.0,0.0,0
76f897717d325b35,1551763421318,80,-6657.0,-8193.0,10495.0,0.0,0.0,0.0,0.0,0.0,0.0,0
76f897717d325b35,1551763421378,81,-6657.0,-8193.0,10495.0,0.0,0.0,0.0,0.0,0.0,0.0,0
76f897717d325b35,1551763421380,82,-6657.0,-8193.0,10495.0,0.0,0.0,0.0,0.0,0.0,0.0,0
76f897717d325b35,1551763421439,83,-6657.0,-8193.0,10495.0,0.0,0.0,0.0,0.0,0.0,0.0,0
76f897717d325b35,1551763421529,84,-6657.0,-8193.0,10495.0,0.0,0.0,0.0,0.0,0.0,0.0,0
76f897717d325b35,1551763421559,85,-6657.0,-8193.0,10495.0,0.0,0.0,0.0,0.0,0.0,0.0,0
76f897717d325b35,1551763421619,86,-6657.0,-8193.0,10495.0,0.0,0.0,0.0,0.0,0.0,0.0,0
76f897717d325b35,1551763421679,87,-6657.0,-8193.0,10495.0,0.0,0.0,0.0,0.0,0.0,0.0,0
76f897717d325b35,1551763421769,88,-6657.0,-8193.0,10495.0,0.0,0.0,0.0,0.0,0.0,0.0,0
76f897717d325b35,1551763421829,89,-6657.0,-8193.0,10495.0,0.0,0.0,0.0,0.0,0.0,0.0,0
76f897717d325b35,1551763421889,90,-6657.0,-8193.0,10495.0,0.0,0.0,0.0,0.0,0.0,0.0,0
76f897717d325b35,1551763421949,91,-6657.0,-8193.0,10495.0,0.0,0.0,0.0,0.0,0.0,0.0,0
76f897717d325b35,1551763422009,92,-6657.0,-8193.0,10495.0,0.0,0.0,0.0,0.0,0.0,0.0,0
76f897717d325b35,1551763422099,93,-6657.0,-8193.0,10495.0,0.0,0.0,0.0,0.0,0.0,0.0,0
76f897717d325b35,1551763422159,94,-6657.0,-8193.0,10495.0,0.0,0.0,0.0,0.0,0.0,0.0,0
76f897717d325b35,1551763422219,95,-6657.0,-8193.0,10495.0,0.0,0.0,0.0,0.0,0.0,0.0,0
76f897717d325b35,1551763422279,96,-6657.0,-8193.0,10495.0,0.0,0.0,0.0,0.0,0.0,0.0,0
76f897717d325b35,1551763422339,97,-6657.0,-8193.0,10495.0,0.0,0.0,0.0,0.0,0.0,0.0,0
76f897717d325b35,1551763422429,98,-6401.0,-8193.0,10495.0,0.0,0.0,0.0,0.0,0.0,0.0,0
76f897717d325b35,1551763422519,99,-6401.0,-8193.0,10495.0,0.0,0.0,0.0,0.0,0.0,0.0,0
76f897717d325b35,1551763422549,100,-6657.0,-8193.0,10751.0,0.0,0.0,0.0,0.0,0.0,0.0,0
76f897717d325b35,1551763422609,101,-6657.0,-8193.0,10495.0,0.0,0.0,0.0,0.0,0.0,0.0,0
76f897717d325b35,1551763422699,102,-6657.0,-8193.0,10495.0,0.0,0.0,0.0,0.0,0.0,0.0,0
76f897717d325b35,1551763422789,103,-6657.0,-8193.0,10495.0,0.0,0.0,0.0,0.0,0.0,0.0,0
76f897717d325b35,1551763422819,104,-6657.0,-8193.0,10495.0,0.0,0.0,0.0,0.0,0.0,0.0,0
76f897717d325b35,1551763422879,105,-6401.0,-8193.0,10495.0,0.0,0.0,0.0,0.0,0.0,0.0,0
76f897717d325b35,1551763422939,106,-6401.0,-8193.0,10495.0,0.0,0.0,0.0,0.0,0.0,0.0,0
76f897717d325b35,1551763422999,107,-6401.0,-8193.0,10495.0,0.0,0.0,0.0,0.0,0.0,0.0,0
76f897717d325b35,1551763423148,108,-6401.0,-8193.0,10495.0,0.0,0.0,0.0,0.0,0.0,0.0,0
76f897717d325b35,1551763423149,109,-6401.0,-8193.0,10495.0,0.0,0.0,0.0,0.0,0.0,0.0,0
76f897717d325b35,1551763423239,110,-6401.0,-8193.0,10495.0,0.0,0.0,0.0,0.0,0.0,0.0,0
76f897717d325b35,1551763423269,111,-6657.0,-8449.0,10495.0,0.0,0.0,0.0,0.0,0.0,0.0,0
76f897717d325b35,1551763423330,112,-6401.0,-8193.0,10495.0,0.0,0.0,0.0,0.0,0.0,0.0,0
76f897717d325b35,1551763423419,113,-6401.0,-8193.0,10495.0,0.0,0.0,0.0,0.0,0.0,0.0,0
76f897717d325b35,1551763423479,114,-6401.0,-8193.0,10495.0,0.0,0.0,0.0,0.0,0.0,0.0,0
76f897717d325b35,1551763423539,115,-6401.0,-8193.0,10495.0,0.0,0.0,0.0,0.0,0.0,0.0,0
76f897717d325b35,1551763423599,116,-6401.0,-8193.0,10495.0,0.0,0.0,0.0,0.0,0.0,0.0,0
76f897717d325b35,1551763423659,117,-6401.0,-8193.0,10495.0,0.0,0.0,0.0,0.0,0.0,0.0,0
76f897717d325b35,1551763423749,118,-6401.0,-8193.0,10495.0,0.0,0.0,0.0,0.0,0.0,0.0,0
76f897717d325b35,1551763423808,119,-6401.0,-8193.0,10495.0,0.0,0.0,0.0,0.0,0.0,0.0,0
76f897717d325b35,1551763423868,120,-6401.0,-8193.0,10495.0,0.0,0.0,0.0,0.0,0.0,0.0,0
76f897717d325b35,1551763423959,121,-6401.0,-8193.0,10495.0,0.0,0.0,0.0,0.0,0.0,0.0,0
76f897717d325b35,1551763424019,122,-6401.0,-8193.0,10495.0,0.0,0.0,0.0,0.0,0.0,0.0,0
76f897717d325b35,1551763424079,123,-6401.0,-8193.0,10495.0,0.0,0.0,0.0,0.0,0.0,0.0,0
76f897717d325b35,1551763424168,124,-6401.0,-8449.0,10495.0,0.0,0.0,0.0,0.0,0.0,0.0,0
76f897717d325b35,1551763424229,125,-6401.0,-8193.0,10495.0,0.0,0.0,0.0,0.0,0.0,0.0,0
76f897717d325b35,1551763424259,126,-6401.0,-8193.0,10495.0,0.0,0.0,0.0,0.0,0.0,0.0,0
76f897717d325b35,1551763424319,127,-6401.0,-8193.0,10495.0,0.0,0.0,0.0,0.0,0.0,0.0,0
76f897717d325b35,1551763424409,128,-6401.0,-8193.0,10495.0,0.0,0.0,0.0,0.0,0.0,0.0,0
76f897717d325b35,1551763424469,129,-6401.0,-8193.0,10495.0,0.0,0.0,0.0,0.0,0.0,0.0,0
76f897717d325b35,1551763424529,130,-6401.0,-8193.0,10495.0,0.0,0.0,0.0,0.0,0.0,0.0,0
76f897717d325b35,1551763424589,131,-6401.0,-8193.0,10495.0,0.0,0.0,0.0,0.0,0.0,0.0,0
76f897717d325b35,1551763424649,132,-6401.0,-8193.0,10495.0,0.0,0.0,0.0,0.0,0.0,0.0,0
76f897717d325b35,1551763424739,133,-6401.0,-8193.0,10495.0,0.0,0.0,0.0,0.0,0.0,0.0,0
76f897717d325b35,1551763424799,134,-6401.0,-8193.0,10495.0,0.0,0.0,0.0,0.0,0.0,0.0,0
76f897717d325b35,1551763424859,135,-6401.0,-8193.0,10495.0,0.0,0.0,0.0,0.0,0.0,0.0,0
76f897717d325b35,1551763424919,136,-6401.0,-8449.0,10495.0,0.0,0.0,0.0,0.0,0.0,0.0,0
76f897717d325b35,1551763424979,137,-6401.0,-8193.0,10495.0,0.0,0.0,0.0,0.0,0.0,0.0,0
76f897717d325b35,1551763425068,138,-6401.0,-8193.0,10495.0,0.0,0.0,0.0,0.0,0.0,0.0,0
76f897717d325b35,1551763425129,139,-6401.0,-8449.0,10495.0,0.0,0.0,0.0,0.0,0.0,0.0,0
76f897717d325b35,1551763425189,140,-6401.0,-8193.0,10495.0,0.0,0.0,0.0,0.0,0.0,0.0,0
76f897717d325b35,1551763425308,141,-6401.0,-8193.0,10495.0,0.0,0.0,0.0,0.0,0.0,0.0,0
76f897717d325b35,1551763425309,142,-6657.0,-8193.0,10495.0,0.0,0.0,0.0,0.0,0.0,0.0,0
76f897717d325b35,1551763425488,143,-6657.0,-8193.0,10495.0,0.0,0.0,0.0,0.0,0.0,0.0,0
76f897717d325b35,1551763425490,144,-6657.0,-8193.0,10495.0,0.0,0.0,0.0,0.0,0.0,0.0,0
76f897717d325b35,1551763425519,145,-6657.0,-8193.0,10495.0,0.0,0.0,0.0,0.0,0.0,0.0,0
76f897717d325b35,1551763425579,146,-6657.0,-8193.0,10495.0,0.0,0.0,0.0,0.0,0.0,0.0,0
76f897717d325b35,1551763425668,147,-6657.0,-8193.0,10495.0,0.0,0.0,0.0,0.0,0.0,0.0,0
76f897717d325b35,1551763425759,148,-6657.0,-8193.0,10495.0,0.0,0.0,0.0,0.0,0.0,0.0,0
76f897717d325b35,1551763425968,149,-6657.0,-8193.0,10495.0,0.0,0.0,0.0,0.0,0.0,0.0,0
76f897717d325b35,1551763425969,150,-6657.0,-8193.0,10495.0,0.0,0.0,0.0,0.0,0.0,0.0,0
76f897717d325b35,1551763425970,151,-6657.0,-8193.0,10495.0,0.0,0.0,0.0,0.0,0.0,0.0,0
76f897717d325b35,1551763425971,152,-6657.0,-8193.0,10495.0,0.0,0.0,0.0,0.0,0.0,0.0,0
76f897717d325b35,1551763426089,153,-6401.0,-8193.0,10495.0,0.0,0.0,0.0,0.0,0.0,0.0,0
76f897717d325b35,1551763426268,154,-6657.0,-8193.0,10495.0,0.0,0.0,0.0,0.0,0.0,0.0,0
76f897717d325b35,1551763426270,155,-6657.0,-8193.0,10495.0,0.0,0.0,0.0,0.0,0.0,0.0,0
76f897717d325b35,1551763426271,156,-6657.0,-8193.0,10495.0,0.0,0.0,0.0,0.0,0.0,0.0,0
76f897717d325b35,1551763426299,157,-6657.0,-8193.0,10495.0,0.0,0.0,0.0,0.0,0.0,0.0,0
76f897717d325b35,1551763426418,158,-6657.0,-8193.0,10495.0,0.0,0.0,0.0,0.0,0.0,0.0,0
76f897717d325b35,1551763426538,159,-6657.0,-8193.0,10495.0,0.0,0.0,0.0,0.0,0.0,0.0,0
76f897717d325b35,1551763426540,160,-6657.0,-8193.0,10495.0,0.0,0.0,0.0,0.0,0.0,0.0,0
76f897717d325b35,1551763426599,161,-6657.0,-8193.0,10495.0,0.0,0.0,0.0,0.0,0.0,0.0,0
76f897717d325b35,1551763426629,162,-6657.0,-8193.0,10495.0,0.0,0.0,0.0,0.0,0.0,0.0,0
76f897717d325b35,1551763426749,163,-6657.0,-8193.0,10495.0,0.0,0.0,0.0,0.0,0.0,0.0,0
76f897717d325b35,1551763426779,164,-6657.0,-8193.0,10495.0,0.0,0.0,0.0,0.0,0.0,0.0,0
76f897717d325b35,1551763427048,165,-6657.0,-8193.0,10495.0,0.0,0.0,0.0,0.0,0.0,0.0,0
76f897717d325b35,1551763427050,166,-6657.0,-8193.0,10495.0,0.0,0.0,0.0,0.0,0.0,0.0,0
76f897717d325b35,1551763427051,167,-6657.0,-8193.0,10495.0,0.0,0.0,0.0,0.0,0.0,0.0,0
76f897717d325b35,1551763427052,168,-6657.0,-8193.0,10495.0,0.0,0.0,0.0,0.0,0.0,0.0,0
76f897717d325b35,1551763427109,169,-6657.0,-8193.0,10495.0,0.0,0.0,0.0,0.0,0.0,0.0,0
76f897717d325b35,1551763427199,170,-6657.0,-8193.0,10495.0,0.0,0.0,0.0,0.0,0.0,0.0,0
76f897717d325b35,1551763427408,171,-6401.0,-8193.0,10495.0,0.0,0.0,0.0,0.0,0.0,0.0,0
76f897717d325b35,1551763427409,172,-6657.0,-8193.0,10751.0,0.0,0.0,0.0,0.0,0.0,0.0,0
76f897717d325b35,1551763427411,173,-6657.0,-8193.0,10751.0,0.0,0.0,0.0,0.0,0.0,0.0,0
76f897717d325b35,1551763427438,174,-6657.0,-8193.0,10495.0,0.0,0.0,0.0,0.0,0.0,0.0,0
76f897717d325b35,1551763427648,175,-6657.0,-8193.0,10495.0,0.0,0.0,0.0,0.0,0.0,0.0,0
76f897717d325b35,1551763427708,176,-6657.0,-8193.0,10495.0,0.0,0.0,0.0,0.0,0.0,0.0,0
76f897717d325b35,1551763427738,177,-6657.0,-8193.0,10751.0,0.0,0.0,0.0,0.0,0.0,0.0,0
76f897717d325b35,1551763427741,178,-6657.0,-8193.0,10751.0,0.0,0.0,0.0,0.0,0.0,0.0,0
76f897717d325b35,1551763427828,179,-6657.0,-8193.0,10495.0,0.0,0.0,0.0,0.0,0.0,0.0,0
76f897717d325b35,1551763427830,180,-6657.0,-8193.0,10751.0,0.0,0.0,0.0,0.0,0.0,0.0,0
76f897717d325b35,1551763427978,181,-6401.0,-8193.0,10495.0,0.0,0.0,0.0,0.0,0.0,0.0,0
76f897717d325b35,1551763427980,182,-6657.0,-8193.0,10495.0,0.0,0.0,0.0,0.0,0.0,0.0,0
76f897717d325b35,1551763428188,183,-6657.0,-8193.0,10495.0,0.0,0.0,0.0,0.0,0.0,0.0,0
76f897717d325b35,1551763428189,184,-6657.0,-8193.0,10495.0,0.0,0.0,0.0,0.0,0.0,0.0,0
76f897717d325b35,1551763428308,185,-6657.0,-8193.0,10495.0,0.0,0.0,0.0,0.0,0.0,0.0,0
76f897717d325b35,1551763428309,186,-6657.0,-8193.0,10751.0,0.0,0.0,0.0,0.0,0.0,0.0,0
76f897717d325b35,1551763428488,187,-6657.0,-8193.0,10495.0,0.0,0.0,0.0,0.0,0.0,0.0,0
76f897717d325b35,1551763428518,188,-6657.0,-8193.0,10495.0,0.0,0.0,0.0,0.0,0.0,0.0,0
76f897717d325b35,1551763428519,189,-6657.0,-8193.0,10495.0,0.0,0.0,0.0,0.0,0.0,0.0,0
76f897717d325b35,1551763428520,190,-6657.0,-8193.0,10495.0,0.0,0.0,0.0,0.0,0.0,0.0,0
76f897717d325b35,1551763428549,191,-6657.0,-8193.0,10495.0,0.0,0.0,0.0,0.0,0.0,0.0,0
76f897717d325b35,1551763428698,192,-6657.0,-8193.0,10495.0,0.0,0.0,0.0,0.0,0.0,0.0,0
76f897717d325b35,1551763428699,193,-6401.0,-8193.0,10495.0,0.0,0.0,0.0,0.0,0.0,0.0,0
76f897717d325b35,1551763428789,194,-6657.0,-8193.0,10495.0,0.0,0.0,0.0,0.0,0.0,0.0,0
76f897717d325b35,1551763428818,195,-6657.0,-8193.0,10495.0,0.0,0.0,0.0,0.0,0.0,0.0,0
76f897717d325b35,1551763428879,196,-6657.0,-8193.0,10495.0,0.0,0.0,0.0,0.0,0.0,0.0,0
76f897717d325b35,1551763428939,197,-6657.0,-8193.0,10495.0,0.0,0.0,0.0,0.0,0.0,0.0,0
76f897717d325b35,1551763429029,198,-6657.0,-8193.0,10495.0,0.0,0.0,0.0,0.0,0.0,0.0,0
76f897717d325b35,1551763429089,199,-6657.0,-8193.0,10751.0,0.0,0.0,0.0,0.0,0.0,0.0,0
76f897717d325b35,1551763429149,200,-6657.0,-8193.0,10495.0,0.0,0.0,0.0,0.0,0.0,0.0,0
76f897717d325b35,1551763429209,201,-6657.0,-8193.0,10495.0,0.0,0.0,0.0,0.0,0.0,0.0,0
76f897717d325b35,1551763429268,202,-6657.0,-8193.0,10495.0,0.0,0.0,0.0,0.0,0.0,0.0,0
76f897717d325b35,1551763429359,203,-6657.0,-8193.0,10495.0,0.0,0.0,0.0,0.0,0.0,0.0,0
76f897717d325b35,1551763429449,204,-6657.0,-8193.0,10495.0,0.0,0.0,0.0,0.0,0.0,0.0,0
76f897717d325b35,1551763429479,205,-6657.0,-8193.0,10495.0,0.0,0.0,0.0,0.0,0.0,0.0,0
76f897717d325b35,1551763429539,206,-6657.0,-8193.0,10495.0,0.0,0.0,0.0,0.0,0.0,0.0,0
76f897717d325b35,1551763429599,207,-6657.0,-8193.0,10495.0,0.0,0.0,0.0,0.0,0.0,0.0,0
76f897717d325b35,1551763429688,208,-6657.0,-8193.0,10751.0,0.0,0.0,0.0,0.0,0.0,0.0,0
76f897717d325b35,1551763429779,209,-6657.0,-8193.0,10751.0,0.0,0.0,0.0,0.0,0.0,0.0,0
76f897717d325b35,1551763429808,210,-6657.0,-8193.0,10495.0,0.0,0.0,0.0,0.0,0.0,0.0,0
76f897717d325b35,1551763429868,211,-6657.0,-8193.0,10495.0,0.0,0.0,0.0,0.0,0.0,0.0,0
76f897717d325b35,1551763429989,212,-6657.0,-8193.0,10495.0,0.0,0.0,0.0,0.0,0.0,0.0,0
76f897717d325b35,1551763430019,213,-6657.0,-8193.0,10495.0,0.0,0.0,0.0,0.0,0.0,0.0,0
76f897717d325b35,1551763430079,214,-6657.0,-8193.0,10495.0,0.0,0.0,0.0,0.0,0.0,0.0,0
76f897717d325b35,1551763430139,215,-6657.0,-8193.0,10495.0,0.0,0.0,0.0,0.0,0.0,0.0,0
76f897717d325b35,1551763430199,216,-6657.0,-8193.0,10495.0,0.0,0.0,0.0,0.0,0.0,0.0,0
76f897717d325b35,1551763430259,217,-6657.0,-8193.0,10495.0,0.0,0.0,0.0,0.0,0.0,0.0,0
76f897717d325b35,1551763430348,218,-6657.0,-8193.0,10495.0,0.0,0.0,0.0,0.0,0.0,0.0,0
76f897717d325b35,1551763430409,219,-6657.0,-8193.0,10495.0,0.0,0.0,0.0,0.0,0.0,0.0,0
76f897717d325b35,1551763430468,220,-6657.0,-8193.0,10495.0,0.0,0.0,0.0,0.0,0.0,0.0,0
76f897717d325b35,1551763430529,221,-6657.0,-8193.0,10495.0,0.0,0.0,0.0,0.0,0.0,0.0,0
76f897717d325b35,1551763430589,222,-6657.0,-8193.0,10495.0,0.0,0.0,0.0,0.0,0.0,0.0,0
76f897717d325b35,1551763430678,223,-6657.0,-8193.0,10495.0,0.0,0.0,0.0,0.0,0.0,0.0,0
76f897717d325b35,1551763430739,224,-6657.0,-8193.0,10495.0,0.0,0.0,0.0,0.0,0.0,0.0,0
76f897717d325b35,1551763430799,225,-6657.0,-8193.0,10495.0,0.0,0.0,0.0,0.0,0.0,0.0,0
76f897717d325b35,1551763430859,226,-6657.0,-8193.0,10495.0,0.0,0.0,0.0,0.0,0.0,0.0,0
76f897717d325b35,1551763430919,227,-6657.0,-8193.0,10495.0,0.0,0.0,0.0,0.0,0.0,0.0,0
76f897717d325b35,1551763431009,228,-6657.0,-8193.0,10495.0,0.0,0.0,0.0,0.0,0.0,0.0,0
76f897717d325b35,1551763431068,229,-6657.0,-8193.0,10495.0,0.0,0.0,0.0,0.0,0.0,0.0,0
76f897717d325b35,1551763431129,230,-6657.0,-8193.0,10495.0,0.0,0.0,0.0,0.0,0.0,0.0,0
76f897717d325b35,1551763431189,231,-6657.0,-8193.0,10751.0,0.0,0.0,0.0,0.0,0.0,0.0,0
76f897717d325b35,1551763431249,232,-6657.0,-8193.0,10495.0,0.0,0.0,0.0,0.0,0.0,0.0,0
76f897717d325b35,1551763431338,233,-6657.0,-8193.0,10495.0,0.0,0.0,0.0,0.0,0.0,0.0,0
76f897717d325b35,1551763431399,234,-6657.0,-8193.0,10495.0,0.0,0.0,0.0,0.0,0.0,0.0,0
76f897717d325b35,1551763431459,235,-6657.0,-8193.0,10495.0,0.0,0.0,0.0,0.0,0.0,0.0,0
76f897717d325b35,1551763431519,236,-6657.0,-8193.0,10751.0,0.0,0.0,0.0,0.0,0.0,0.0,0
76f897717d325b35,1551763431579,237,-6657.0,-8193.0,10495.0,0.0,0.0,0.0,0.0,0.0,0.0,0
76f897717d325b35,1551763431668,238,-6657.0,-8193.0,10495.0,0.0,0.0,0.0,0.0,0.0,0.0,0
76f897717d325b35,1551763431729,239,-6657.0,-8193.0,10495.0,0.0,0.0,0.0,0.0,0.0,0.0,0
76f897717d325b35,1551763431789,240,-6657.0,-8193.0,10495.0,0.0,0.0,0.0,0.0,0.0,0.0,0
76f897717d325b35,1551763431849,241,-6657.0,-8193.0,10495.0,0.0,0.0,0.0,0.0,0.0,0.0,0
76f897717d325b35,1551763431909,242,-6401.0,-8193.0,10751.0,0.0,0.0,0.0,0.0,0.0,0.0,0
76f897717d325b35,1551763431999,243,-6401.0,-8193.0,10495.0,0.0,0.0,0.0,0.0,0.0,0.0,0
76f897717d325b35,1551763432058,244,-6657.0,-8193.0,10495.0,0.0,0.0,0.0,0.0,0.0,0.0,0
76f897717d325b35,1551763432119,245,-6657.0,-8193.0,10751.0,0.0,0.0,0.0,0.0,0.0,0.0,0
76f897717d325b35,1551763432209,246,-6401.0,-8193.0,10751.0,0.0,0.0,0.0,0.0,0.0,0.0,0
76f897717d325b35,1551763432239,247,-6657.0,-8193.0,10495.0,0.0,0.0,0.0,0.0,0.0,0.0,0
76f897717d325b35,1551763432328,248,-6657.0,-8193.0,10495.0,0.0,0.0,0.0,0.0,0.0,0.0,0
76f897717d325b35,1551763432389,249,-6401.0,-8193.0,10495.0,0.0,0.0,0.0,0.0,0.0,0.0,0
76f897717d325b35,1551763432448,250,-6401.0,-8193.0,10495.0,0.0,0.0,0.0,0.0,0.0,0.0,0
76f897717d325b35,1551763432509,251,-6657.0,-8193.0,10495.0,0.0,0.0,0.0,0.0,0.0,0.0,0
76f897717d325b35,1551763432568,252,-6401.0,-8193.0,10495.0,0.0,0.0,0.0,0.0,0.0,0.0,0
76f897717d325b35,1551763432659,253,-6401.0,-8193.0,10751.0,0.0,0.0,0.0,0.0,0.0,0.0,0
76f897717d325b35,1551763432718,254,-6401.0,-8193.0,10495.0,0.0,0.0,0.0,0.0,0.0,0.0,0
76f897717d325b35,1551763432778,255,-6401.0,-8193.0,10495.0,0.0,0.0,0.0,0.0,0.0,0.0,0
76f897717d325b35,1551763432838,256,-6401.0,-8193.0,10495.0,0.0,0.0,0.0,0.0,0.0,0.0,0
76f897717d325b35,1551763432898,257,-6401.0,-8193.0,10495.0,0.0,0.0,0.0,0.0,0.0,0.0,0
76f897717d325b35,1551763432988,258,-6401.0,-8193.0,10495.0,0.0,0.0,0.0,0.0,0.0,0.0,0
76f897717d325b35,1551763433048,259,-6401.0,-8193.0,10495.0,0.0,0.0,0.0,0.0,0.0,0.0,0
76f897717d325b35,1551763433108,260,-6401.0,-8193.0,10495.0,0.0,0.0,0.0,0.0,0.0,0.0,0
76f897717d325b35,1551763433168,261,-6401.0,-8193.0,10495.0,0.0,0.0,0.0,0.0,0.0,0.0,0
76f897717d325b35,1551763433228,262,-6657.0,-8193.0,10495.0,0.0,0.0,0.0,0.0,0.0,0.0,0
76f897717d325b35,1551763433347,263,-6401.0,-8193.0,10495.0,0.0,0.0,0.0,0.0,0.0,0.0,0
76f897717d325b35,1551763433378,264,-6657.0,-8193.0,10495.0,0.0,0.0,0.0,0.0,0.0,0.0,0
76f897717d325b35,1551763433438,265,-6401.0,-8193.0,10495.0,0.0,0.0,0.0,0.0,0.0,0.0,0
76f897717d325b35,1551763433499,266,-6401.0,-8193.0,10495.0,0.0,0.0,0.0,0.0,0.0,0.0,0
76f897717d325b35,1551763433558,267,-6657.0,-8193.0,10495.0,0.0,0.0,0.0,0.0,0.0,0.0,0
76f897717d325b35,1551763433649,268,-6401.0,-8193.0,10495.0,0.0,0.0,0.0,0.0,0.0,0.0,0
76f897717d325b35,1551763433709,269,-6657.0,-8193.0,10495.0,0.0,0.0,0.0,0.0,0.0,0.0,0
76f897717d325b35,1551763433768,270,-6657.0,-8193.0,10495.0,0.0,0.0,0.0,0.0,0.0,0.0,0
76f897717d325b35,1551763433828,271,-6657.0,-8193.0,10495.0,0.0,0.0,0.0,0.0,0.0,0.0,0
76f897717d325b35,1551763433889,272,-6657.0,-8193.0,10495.0,0.0,0.0,0.0,0.0,0.0,0.0,0
76f897717d325b35,1551763433979,273,-6657.0,-8193.0,10495.0,0.0,0.0,0.0,0.0,0.0,0.0,0
76f897717d325b35,1551763434039,274,-6657.0,-8193.0,10495.0,0.0,0.0,0.0,0.0,0.0,0.0,0
76f897717d325b35,1551763434099,275,-6657.0,-8193.0,10495.0,0.0,0.0,0.0,0.0,0.0,0.0,0
76f897717d325b35,1551763434188,276,-6657.0,-8193.0,10495.0,0.0,0.0,0.0,0.0,0.0,0.0,0
76f897717d325b35,1551763434219,277,-6657.0,-8193.0,10495.0,0.0,0.0,0.0,0.0,0.0,0.0,0
76f897717d325b35,1551763434308,278,-6657.0,-8193.0,10495.0,0.0,0.0,0.0,0.0,0.0,0.0,0
76f897717d325b35,1551763434368,279,-6657.0,-8193.0,10495.0,0.0,0.0,0.0,0.0,0.0,0.0,0
76f897717d325b35,1551763434518,280,-6657.0,-8193.0,10495.0,0.0,0.0,0.0,0.0,0.0,0.0,0
76f897717d325b35,1551763434519,281,-6657.0,-8193.0,10495.0,0.0,0.0,0.0,0.0,0.0,0.0,0
76f897717d325b35,1551763434549,282,-6657.0,-8193.0,10495.0,0.0,0.0,0.0,0.0,0.0,0.0,0
76f897717d325b35,1551763434639,283,-6657.0,-8193.0,10495.0,0.0,0.0,0.0,0.0,0.0,0.0,0
76f897717d325b35,1551763434758,284,-6657.0,-8193.0,10495.0,0.0,0.0,0.0,0.0,0.0,0.0,0
76f897717d325b35,1551763434938,285,-6657.0,-8193.0,10495.0,0.0,0.0,0.0,0.0,0.0,0.0,0
76f897717d325b35,1551763434939,286,-6657.0,-8193.0,10495.0,0.0,0.0,0.0,0.0,0.0,0.0,0
76f897717d325b35,1551763434998,287,-6657.0,-8193.0,10495.0,0.0,0.0,0.0,0.0,0.0,0.0,0
76f897717d325b35,1551763434999,288,-6657.0,-8193.0,10495.0,0.0,0.0,0.0,0.0,0.0,0.0,0
76f897717d325b35,1551763435029,289,-6657.0,-8193.0,10751.0,0.0,0.0,0.0,0.0,0.0,0.0,0
76f897717d325b35,1551763435089,290,-6657.0,-8193.0,10495.0,0.0,0.0,0.0,0.0,0.0,0.0,0
76f897717d325b35,1551763435149,291,-6657.0,-8193.0,10495.0,0.0,0.0,0.0,0.0,0.0,0.0,0
76f897717d325b35,1551763435208,292,-6657.0,-8193.0,10495.0,0.0,0.0,0.0,0.0,0.0,0.0,0
76f897717d325b35,1551763435299,293,-6657.0,-8193.0,10495.0,0.0,0.0,0.0,0.0,0.0,0.0,0
76f897717d325b35,1551763435358,294,-6657.0,-8193.0,10495.0,0.0,0.0,0.0,0.0,0.0,0.0,0
76f897717d325b35,1551763435419,295,-6657.0,-8193.0,10495.0,0.0,0.0,0.0,0.0,0.0,0.0,0
76f897717d325b35,1551763435538,296,-6657.0,-8193.0,10751.0,0.0,0.0,0.0,0.0,0.0,0.0,0
76f897717d325b35,1551763435568,297,-6657.0,-8193.0,10751.0,0.0,0.0,0.0,0.0,0.0,0.0,0
76f897717d325b35,1551763435629,298,-6657.0,-8193.0,10751.0,0.0,0.0,0.0,0.0,0.0,0.0,0
76f897717d325b35,1551763435688,299,-6657.0,-8193.0,10495.0,0.0,0.0,0.0,0.0,0.0,0.0,0
76f897717d325b35,1551763435749,300,-6657.0,-8193.0,10495.0,0.0,0.0,0.0,0.0,0.0,0.0,0
76f897717d325b35,1551763435809,301,-6657.0,-8193.0,10495.0,0.0,0.0,0.0,0.0,0.0,0.0,0
76f897717d325b35,1551763435868,302,-6657.0,-8193.0,10751.0,0.0,0.0,0.0,0.0,0.0,0.0,0
76f897717d325b35,1551763435959,303,-6657.0,-8193.0,10495.0,0.0,0.0,0.0,0.0,0.0,0.0,0
76f897717d325b35,1551763436018,304,-6657.0,-8193.0,10751.0,0.0,0.0,0.0,0.0,0.0,0.0,0
76f897717d325b35,1551763436078,305,-6657.0,-8193.0,10495.0,0.0,0.0,0.0,0.0,0.0,0.0,0
76f897717d325b35,1551763436168,306,-6657.0,-8193.0,10495.0,0.0,0.0,0.0,0.0,0.0,0.0,0
76f897717d325b35,1551763436199,307,-6657.0,-8193.0,10495.0,0.0,0.0,0.0,0.0,0.0,0.0,0
76f897717d325b35,1551763436289,308,-6657.0,-8193.0,10751.0,0.0,0.0,0.0,0.0,0.0,0.0,0
76f897717d325b35,1551763436408,309,-6657.0,-8193.0,10495.0,0.0,0.0,0.0,0.0,0.0,0.0,0
76f897717d325b35,1551763436438,310,-6657.0,-8193.0,10495.0,0.0,0.0,0.0,0.0,0.0,0.0,0
76f897717d325b35,1551763436468,311,-6657.0,-8193.0,10751.0,0.0,0.0,0.0,0.0,0.0,0.0,0
76f897717d325b35,1551763436528,312,-6657.0,-8193.0,10495.0,0.0,0.0,0.0,0.0,0.0,0.0,0
76f897717d325b35,1551763436619,313,-6657.0,-8193.0,10495.0,0.0,0.0,0.0,0.0,0.0,0.0,0
76f897717d325b35,1551763436679,314,-6657.0,-8193.0,10751.0,0.0,0.0,0.0,0.0,0.0,0.0,0
76f897717d325b35,1551763436739,315,-6657.0,-8193.0,10751.0,0.0,0.0,0.0,0.0,0.0,0.0,0
76f897717d325b35,1551763436799,316,-6657.0,-8193.0,10495.0,0.0,0.0,0.0,0.0,0.0,0.0,0
76f897717d325b35,1551763436859,317,-6657.0,-8193.0,10495.0,0.0,0.0,0.0,0.0,0.0,0.0,0
76f897717d325b35,1551763436948,318,-6401.0,-8193.0,10495.0,0.0,0.0,0.0,0.0,0.0,0.0,0
76f897717d325b35,1551763437008,319,-6401.0,-8193.0,10495.0,0.0,0.0,0.0,0.0,0.0,0.0,0
76f897717d325b35,1551763437099,320,-6657.0,-8193.0,10495.0,0.0,0.0,0.0,0.0,0.0,0.0,0
76f897717d325b35,1551763437128,321,-6657.0,-8193.0,10495.0,0.0,0.0,0.0,0.0,0.0,0.0,0
76f897717d325b35,1551763437218,322,-6657.0,-8193.0,10495.0,0.0,0.0,0.0,0.0,0.0,0.0,0
76f897717d325b35,1551763437279,323,-6401.0,-8193.0,10495.0,0.0,0.0,0.0,0.0,0.0,0.0,0
76f897717d325b35,1551763437368,324,-6657.0,-8193.0,10495.0,0.0,0.0,0.0,0.0,0.0,0.0,0
76f897717d325b35,1551763437458,325,-6657.0,-8193.0,10495.0,0.0,0.0,0.0,0.0,0.0,0.0,0
76f897717d325b35,1551763437459,326,-6401.0,-8193.0,10495.0,0.0,0.0,0.0,0.0,0.0,0.0,0
76f897717d325b35,1551763437549,327,-6657.0,-8193.0,10495.0,0.0,0.0,0.0,0.0,0.0,0.0,0
76f897717d325b35,1551763437609,328,-6657.0,-8193.0,10495.0,0.0,0.0,0.0,0.0,0.0,0.0,0
76f897717d325b35,1551763437668,329,-6657.0,-8449.0,10495.0,0.0,0.0,0.0,0.0,0.0,0.0,0
76f897717d325b35,1551763437908,330,-6657.0,-8193.0,10495.0,0.0,0.0,0.0,0.0,0.0,0.0,0
76f897717d325b35,1551763437909,331,-6657.0,-8193.0,10495.0,0.0,0.0,0.0,0.0,0.0,0.0,0
76f897717d325b35,1551763437910,332,-6657.0,-8193.0,10495.0,0.0,0.0,0.0,0.0,0.0,0.0,0
76f897717d325b35,1551763437938,333,-6657.0,-8193.0,10495.0,0.0,0.0,0.0,0.0,0.0,0.0,0
76f897717d325b35,1551763438029,334,-6657.0,-8193.0,10495.0,0.0,0.0,0.0,0.0,0.0,0.0,0
76f897717d325b35,1551763438059,335,-6657.0,-8193.0,10495.0,0.0,0.0,0.0,0.0,0.0,0.0,0
76f897717d325b35,1551763440522,336,-6657.0,-8193.0,10495.0,0.0,0.0,0.0,0.0,0.0,0.0,0
76f897717d325b35,1551763440551,337,-6657.0,-8193.0,10495.0,0.0,0.0,0.0,0.0,0.0,0.0,0
76f897717d325b35,1551763440553,338,-6657.0,-8193.0,10495.0,0.0,0.0,0.0,0.0,0.0,0.0,0
76f897717d325b35,1551763440702,339,-6657.0,-8193.0,10495.0,0.0,0.0,0.0,0.0,0.0,0.0,0
76f897717d325b35,1551763440703,340,-6657.0,-8193.0,10495.0,0.0,0.0,0.0,0.0,0.0,0.0,0
76f897717d325b35,1551763440821,341,-6657.0,-8193.0,10495.0,0.0,0.0,0.0,0.0,0.0,0.0,0
76f897717d325b35,1551763440823,342,-6657.0,-8193.0,10495.0,0.0,0.0,0.0,0.0,0.0,0.0,0
76f897717d325b35,1551763441272,343,-6657.0,-8193.0,10495.0,0.0,0.0,0.0,0.0,0.0,0.0,0
76f897717d325b35,1551763441274,344,-6657.0,-8193.0,10495.0,0.0,0.0,0.0,0.0,0.0,0.0,0
76f897717d325b35,1551763441275,345,-6657.0,-8193.0,10495.0,0.0,0.0,0.0,0.0,0.0,0.0,0
76f897717d325b35,1551763441276,346,-6657.0,-8193.0,10495.0,0.0,0.0,0.0,0.0,0.0,0.0,0
76f897717d325b35,1551763441277,347,-6657.0,-8193.0,10495.0,0.0,0.0,0.0,0.0,0.0,0.0,0
76f897717d325b35,1551763441278,348,-6657.0,-8193.0,10495.0,0.0,0.0,0.0,0.0,0.0,0.0,0
76f897717d325b35,1551763441361,349,-6657.0,-8193.0,10495.0,0.0,0.0,0.0,0.0,0.0,0.0,0
76f897717d325b35,1551763441451,350,-6657.0,-8193.0,10495.0,0.0,0.0,0.0,0.0,0.0,0.0,0
76f897717d325b35,1551763441571,351,-6657.0,-8193.0,10495.0,0.0,0.0,0.0,0.0,0.0,0.0,0
76f897717d325b35,1551763441574,352,-6401.0,-8193.0,10495.0,0.0,0.0,0.0,0.0,0.0,0.0,0
76f897717d325b35,1551763441575,353,-6401.0,-8193.0,10495.0,0.0,0.0,0.0,0.0,0.0,0.0,0
76f897717d325b35,1551763441662,354,-6401.0,-8193.0,10495.0,0.0,0.0,0.0,0.0,0.0,0.0,0
76f897717d325b35,1551763441721,355,-6401.0,-8193.0,10495.0,0.0,0.0,0.0,0.0,0.0,0.0,0
76f897717d325b35,1551763441782,356,-6657.0,-8193.0,10495.0,0.0,0.0,0.0,0.0,0.0,0.0,0
76f897717d325b35,1551763441841,357,-6657.0,-8193.0,10495.0,0.0,0.0,0.0,0.0,0.0,0.0,0
76f897717d325b35,1551763441872,358,-6401.0,-8193.0,10495.0,0.0,0.0,0.0,0.0,0.0,0.0,0
76f897717d325b35,1551763441962,359,-6401.0,-8193.0,10495.0,0.0,0.0,0.0,0.0,0.0,0.0,0
76f897717d325b35,1551763442022,360,-6401.0,-8193.0,10495.0,0.0,0.0,0.0,0.0,0.0,0.0,0
76f897717d325b35,1551763442082,361,-6401.0,-8193.0,10495.0,0.0,0.0,0.0,0.0,0.0,0.0,0
76f897717d325b35,1551763442172,362,-6401.0,-8193.0,10495.0,0.0,0.0,0.0,0.0,0.0,0.0,0
76f897717d325b35,1551763442262,363,-6657.0,-8193.0,10751.0,0.0,0.0,0.0,0.0,0.0,0.0,0
76f897717d325b35,1551763442321,364,-6657.0,-8193.0,10495.0,0.0,0.0,0.0,0.0,0.0,0.0,0
76f897717d325b35,1551763442382,365,-6657.0,-8193.0,10495.0,0.0,0.0,0.0,0.0,0.0,0.0,0
76f897717d325b35,1551763442412,366,-6401.0,-8193.0,10495.0,0.0,0.0,0.0,0.0,0.0,0.0,0
76f897717d325b35,1551763442472,367,-6657.0,-8193.0,10495.0,0.0,0.0,0.0,0.0,0.0,0.0,0
76f897717d325b35,1551763442592,368,-6657.0,-8193.0,10751.0,0.0,0.0,0.0,0.0,0.0,0.0,0
76f897717d325b35,1551763442622,369,-6657.0,-8193.0,10495.0,0.0,0.0,0.0,0.0,0.0,0.0,0
76f897717d325b35,1551763442682,370,-6401.0,-8193.0,10495.0,0.0,0.0,0.0,0.0,0.0,0.0,0
76f897717d325b35,1551763442772,371,-6657.0,-8193.0,10495.0,0.0,0.0,0.0,0.0,0.0,0.0,0
76f897717d325b35,1551763442891,372,-6657.0,-8193.0,10495.0,0.0,0.0,0.0,0.0,0.0,0.0,0
76f897717d325b35,1551763442893,373,-6657.0,-8193.0,10495.0,0.0,0.0,0.0,0.0,0.0,0.0,0
76f897717d325b35,1551763442982,374,-6657.0,-8193.0,10495.0,0.0,0.0,0.0,0.0,0.0,0.0,0
76f897717d325b35,1551763443251,375,-6657.0,-8193.0,10495.0,0.0,0.0,0.0,0.0,0.0,0.0,0
76f897717d325b35,1551763443252,376,-6657.0,-8193.0,10495.0,0.0,0.0,0.0,0.0,0.0,0.0,0
76f897717d325b35,1551763443253,377,-6657.0,-8193.0,10751.0,0.0,0.0,0.0,0.0,0.0,0.0,0
76f897717d325b35,1551763443255,378,-6657.0,-8193.0,10495.0,0.0,0.0,0.0,0.0,0.0,0.0,0
76f897717d325b35,1551763443282,379,-6657.0,-8193.0,10495.0,0.0,0.0,0.0,0.0,0.0,0.0,0
76f897717d325b35,1551763443342,380,-6657.0,-8193.0,10751.0,0.0,0.0,0.0,0.0,0.0,0.0,0
76f897717d325b35,1551763443432,381,-6657.0,-8193.0,10495.0,0.0,0.0,0.0,0.0,0.0,0.0,0
76f897717d325b35,1551763443641,382,-6657.0,-8193.0,10751.0,0.0,0.0,0.0,0.0,0.0,0.0,0
76f897717d325b35,1551763443641,383,-6657.0,-8193.0,10495.0,0.0,0.0,0.0,0.0,0.0,0.0,0
76f897717d325b35,1551763443643,384,-6657.0,-8193.0,10751.0,0.0,0.0,0.0,0.0,0.0,0.0,0
76f897717d325b35,1551763443731,385,-6657.0,-8193.0,10751.0,0.0,0.0,0.0,0.0,0.0,0.0,0
76f897717d325b35,1551763443733,386,-6657.0,-8193.0,10751.0,0.0,0.0,0.0,0.0,0.0,0.0,0
76f897717d325b35,1551763443792,387,-6657.0,-8193.0,10751.0,0.0,0.0,0.0,0.0,0.0,0.0,0
76f897717d325b35,1551763443941,388,-6657.0,-8193.0,10495.0,0.0,0.0,0.0,0.0,0.0,0.0,0
76f897717d325b35,1551763443943,389,-6401.0,-8193.0,10751.0,0.0,0.0,0.0,0.0,0.0,0.0,0
76f897717d325b35,1551763444002,390,-6401.0,-8193.0,10751.0,0.0,0.0,0.0,0.0,0.0,0.0,0
76f897717d325b35,1551763444181,391,-6657.0,-8193.0,10751.0,0.0,0.0,0.0,0.0,0.0,0.0,0
76f897717d325b35,1551763444452,392,-6401.0,-8193.0,10751.0,0.0,0.0,0.0,0.0,0.0,0.0,0
76f897717d325b35,1551763444453,393,-6401.0,-8193.0,10495.0,0.0,0.0,0.0,0.0,0.0,0.0,0
76f897717d325b35,1551763444541,394,-6401.0,-8193.0,10751.0,0.0,0.0,0.0,0.0,0.0,0.0,0
76f897717d325b35,1551763445051,395,-6401.0,-8193.0,10751.0,0.0,0.0,0.0,0.0,0.0,0.0,0
76f897717d325b35,1551763445053,396,-6401.0,-8193.0,10751.0,0.0,0.0,0.0,0.0,0.0,0.0,0
76f897717d325b35,1551763445202,397,-6657.0,-8193.0,10751.0,0.0,0.0,0.0,0.0,0.0,0.0,0
76f897717d325b35,1551763445203,398,-6401.0,-8193.0,10751.0,0.0,0.0,0.0,0.0,0.0,0.0,0
76f897717d325b35,1551763445204,399,-6401.0,-8193.0,10751.0,0.0,0.0,0.0,0.0,0.0,0.0,0
76f897717d325b35,1551763445261,400,-6401.0,-8193.0,10751.0,0.0,0.0,0.0,0.0,0.0,0.0,0
76f897717d325b35,1551763445263,401,-6401.0,-8193.0,10751.0,0.0,0.0,0.0,0.0,0.0,0.0,0
76f897717d325b35,1551763445264,402,-6401.0,-8193.0,10751.0,0.0,0.0,0.0,0.0,0.0,0.0,0
76f897717d325b35,1551763445265,403,-6401.0,-8193.0,10495.0,0.0,0.0,0.0,0.0,0.0,0.0,0
76f897717d325b35,1551763445267,404,-6657.0,-8193.0,10751.0,0.0,0.0,0.0,0.0,0.0,0.0,0
76f897717d325b35,1551763445501,405,-6401.0,-8193.0,10751.0,0.0,0.0,0.0,0.0,0.0,0.0,0
76f897717d325b35,1551763445503,406,-6401.0,-8193.0,10751.0,0.0,0.0,0.0,0.0,0.0,0.0,0
76f897717d325b35,1551763445504,407,-6401.0,-8193.0,10751.0,0.0,0.0,0.0,0.0,0.0,0.0,0
76f897717d325b35,1551763445561,408,-6401.0,-8193.0,10751.0,0.0,0.0,0.0,0.0,0.0,0.0,0
76f897717d325b35,1551763445651,409,-6401.0,-8193.0,10751.0,0.0,0.0,0.0,0.0,0.0,0.0,0
76f897717d325b35,1551763445682,410,-6401.0,-8193.0,10751.0,0.0,0.0,0.0,0.0,0.0,0.0,0
76f897717d325b35,1551763445712,411,-6401.0,-8193.0,10495.0,0.0,0.0,0.0,0.0,0.0,0.0,0
76f897717d325b35,1551763445861,412,-6401.0,-8193.0,10495.0,0.0,0.0,0.0,0.0,0.0,0.0,0
76f897717d325b35,1551763445863,413,-6401.0,-8193.0,10495.0,0.0,0.0,0.0,0.0,0.0,0.0,0
76f897717d325b35,1551763445922,414,-6657.0,-8193.0,10495.0,0.0,0.0,0.0,0.0,0.0,0.0,0
76f897717d325b35,1551763446012,415,-6401.0,-8193.0,10751.0,0.0,0.0,0.0,0.0,0.0,0.0,0
76f897717d325b35,1551763446072,416,-6401.0,-8193.0,10495.0,0.0,0.0,0.0,0.0,0.0,0.0,0
76f897717d325b35,1551763446161,417,-6657.0,-8193.0,10495.0,0.0,0.0,0.0,0.0,0.0,0.0,0
76f897717d325b35,1551763446163,418,-6401.0,-8193.0,10495.0,0.0,0.0,0.0,0.0,0.0,0.0,0
76f897717d325b35,1551763446341,419,-6401.0,-8193.0,10495.0,0.0,0.0,0.0,0.0,0.0,0.0,0
76f897717d325b35,1551763446371,420,-6657.0,-8193.0,10495.0,0.0,0.0,0.0,0.0,0.0,0.0,0
76f897717d325b35,1551763446373,421,-6401.0,-8193.0,10495.0,0.0,0.0,0.0,0.0,0.0,0.0,0
76f897717d325b35,1551763446462,422,-6657.0,-8193.0,10495.0,0.0,0.0,0.0,0.0,0.0,0.0,0
76f897717d325b35,1551763446672,423,-6657.0,-8193.0,10751.0,0.0,0.0,0.0,0.0,0.0,0.0,0
76f897717d325b35,1551763446673,424,-6657.0,-8193.0,10495.0,0.0,0.0,0.0,0.0,0.0,0.0,0
76f897717d325b35,1551763446674,425,-6657.0,-8193.0,10495.0,0.0,0.0,0.0,0.0,0.0,0.0,0
76f897717d325b35,1551763446761,426,-6657.0,-8193.0,10495.0,0.0,0.0,0.0,0.0,0.0,0.0,0
76f897717d325b35,1551763446792,427,-6657.0,-8193.0,10495.0,0.0,0.0,0.0,0.0,0.0,0.0,0
76f897717d325b35,1551763446822,428,-6657.0,-8193.0,10751.0,0.0,0.0,0.0,0.0,0.0,0.0,0
76f897717d325b35,1551763446912,429,-6657.0,-8193.0,10495.0,0.0,0.0,0.0,0.0,0.0,0.0,0
76f897717d325b35,1551763447031,430,-6657.0,-8193.0,10751.0,0.0,0.0,0.0,0.0,0.0,0.0,0
76f897717d325b35,1551763447033,431,-6657.0,-8193.0,10495.0,0.0,0.0,0.0,0.0,0.0,0.0,0
76f897717d325b35,1551763447122,432,-6657.0,-8193.0,10495.0,0.0,0.0,0.0,0.0,0.0,0.0,0
76f897717d325b35,1551763447152,433,-6657.0,-8193.0,10751.0,0.0,0.0,0.0,0.0,0.0,0.0,0
76f897717d325b35,1551763447242,434,-6657.0,-8193.0,10495.0,0.0,0.0,0.0,0.0,0.0,0.0,0
76f897717d325b35,1551763447302,435,-6657.0,-8193.0,10751.0,0.0,0.0,0.0,0.0,0.0,0.0,0
76f897717d325b35,1551763447362,436,-6657.0,-8193.0,10495.0,0.0,0.0,0.0,0.0,0.0,0.0,0
76f897717d325b35,1551763447422,437,-6657.0,-8193.0,10495.0,0.0,0.0,0.0,0.0,0.0,0.0,0
76f897717d325b35,1551763447482,438,-6657.0,-8193.0,10495.0,0.0,0.0,0.0,0.0,0.0,0.0,0
76f897717d325b35,1551763447631,439,-6657.0,-8193.0,10495.0,0.0,0.0,0.0,0.0,0.0,0.0,0
76f897717d325b35,1551763447721,440,-6657.0,-8193.0,10495.0,0.0,0.0,0.0,0.0,0.0,0.0,0
76f897717d325b35,1551763447722,441,-6657.0,-8193.0,10495.0,0.0,0.0,0.0,0.0,0.0,0.0,0
76f897717d325b35,1551763447901,442,-6657.0,-8193.0,10495.0,0.0,0.0,0.0,0.0,0.0,0.0,0
76f897717d325b35,1551763447931,443,-6657.0,-8193.0,10495.0,0.0,0.0,0.0,0.0,0.0,0.0,0
76f897717d325b35,1551763447933,444,-6657.0,-8193.0,10751.0,0.0,0.0,0.0,0.0,0.0,0.0,0
76f897717d325b35,1551763448112,445,-6657.0,-8193.0,10495.0,0.0,0.0,0.0,0.0,0.0,0.0,0
76f897717d325b35,1551763448113,446,-6657.0,-8193.0,10751.0,0.0,0.0,0.0,0.0,0.0,0.0,0
76f897717d325b35,1551763448114,447,-6657.0,-8193.0,10751.0,0.0,0.0,0.0,0.0,0.0,0.0,0
76f897717d325b35,1551763448142,448,-6657.0,-8193.0,10495.0,0.0,0.0,0.0,0.0,0.0,0.0,0
76f897717d325b35,1551763448441,449,-6657.0,-8193.0,10751.0,0.0,0.0,0.0,0.0,0.0,0.0,0
76f897717d325b35,1551763448561,450,-6657.0,-8193.0,10751.0,0.0,0.0,0.0,0.0,0.0,0.0,0
76f897717d325b35,1551763448563,451,-6657.0,-8193.0,10751.0,0.0,0.0,0.0,0.0,0.0,0.0,0
76f897717d325b35,1551763448564,452,-6657.0,-8193.0,10495.0,0.0,0.0,0.0,0.0,0.0,0.0,0
76f897717d325b35,1551763448681,453,-6657.0,-8193.0,10751.0,0.0,0.0,0.0,0.0,0.0,0.0,0
76f897717d325b35,1551763448682,454,-6657.0,-8193.0,10751.0,0.0,0.0,0.0,0.0,0.0,0.0,0
76f897717d325b35,1551763448684,455,-6401.0,-8193.0,10751.0,0.0,0.0,0.0,0.0,0.0,0.0,0
76f897717d325b35,1551763448685,456,-6657.0,-8193.0,10751.0,0.0,0.0,0.0,0.0,0.0,0.0,0
76f897717d325b35,1551763448742,457,-6401.0,-8193.0,10751.0,0.0,0.0,0.0,0.0,0.0,0.0,0
76f897717d325b35,1551763448832,458,-6401.0,-8193.0,10751.0,0.0,0.0,0.0,0.0,0.0,0.0,0
76f897717d325b35,1551763448981,459,-6401.0,-8193.0,10751.0,0.0,0.0,0.0,0.0,0.0,0.0,0
76f897717d325b35,1551763448983,460,-6401.0,-8193.0,10751.0,0.0,0.0,0.0,0.0,0.0,0.0,0
76f897717d325b35,1551763449071,461,-6401.0,-8193.0,10751.0,0.0,0.0,0.0,0.0,0.0,0.0,0
76f897717d325b35,1551763449072,462,-6401.0,-8193.0,10751.0,0.0,0.0,0.0,0.0,0.0,0.0,0
76f897717d325b35,1551763449162,463,-6401.0,-8193.0,10751.0,0.0,0.0,0.0,0.0,0.0,0.0,0
76f897717d325b35,1551763449222,464,-6401.0,-8193.0,10751.0,0.0,0.0,0.0,0.0,0.0,0.0,0
76f897717d325b35,1551763449282,465,-6657.0,-8193.0,10495.0,0.0,0.0,0.0,0.0,0.0,0.0,0
76f897717d325b35,1551763449401,466,-6401.0,-8193.0,11007.0,0.0,0.0,0.0,0.0,0.0,0.0,0
76f897717d325b35,1551763449432,467,-6401.0,-8193.0,10495.0,0.0,0.0,0.0,0.0,0.0,0.0,0
76f897717d325b35,1551763449462,468,-5889.0,-8449.0,10495.0,0.0,0.0,0.0,0.0,0.0,0.0,0
76f897717d325b35,1551763449552,469,-6401.0,-8449.0,10495.0,0.0,0.0,0.0,0.0,0.0,0.0,0
76f897717d325b35,1551763449612,470,-6657.0,-7937.0,9727.0,0.0,0.0,0.0,0.0,0.0,0.0,0
76f897717d325b35,1551763449761,471,-6657.0,-8705.0,10239.0,0.0,0.0,0.0,0.0,0.0,0.0,0
76f897717d325b35,1551763449763,472,-6145.0,-8961.0,9983.0,0.0,0.0,0.0,0.0,0.0,0.0,0
76f897717d325b35,1551763449852,473,-5889.0,-8961.0,10239.0,0.0,0.0,0.0,0.0,0.0,0.0,0
76f897717d325b35,1551763449882,474,-5377.0,-8705.0,10239.0,0.0,0.0,0.0,0.0,0.0,0.0,0
76f897717d325b35,1551763449942,475,-5889.0,-8449.0,10239.0,0.0,0.0,0.0,0.0,0.0,0.0,0
76f897717d325b35,1551763450032,476,-5633.0,-8449.0,10495.0,0.0,0.0,0.0,0.0,0.0,0.0,0
76f897717d325b35,1551763450062,477,-5889.0,-8705.0,10495.0,0.0,0.0,0.0,0.0,0.0,0.0,0
76f897717d325b35,1551763450122,478,-5633.0,-8449.0,10495.0,0.0,0.0,0.0,0.0,0.0,0.0,0
76f897717d325b35,1551763450212,479,-5633.0,-8193.0,10495.0,0.0,0.0,0.0,0.0,0.0,0.0,0
76f897717d325b35,1551763450271,480,-5377.0,-8449.0,10495.0,0.0,0.0,0.0,0.0,0.0,0.0,0
76f897717d325b35,1551763450332,481,-5633.0,-8705.0,10495.0,0.0,0.0,0.0,0.0,0.0,0.0,0
76f897717d325b35,1551763450422,482,-5377.0,-8705.0,10751.0,0.0,0.0,0.0,0.0,0.0,0.0,0
76f897717d325b35,1551763450452,483,-5633.0,-8705.0,10495.0,0.0,0.0,0.0,0.0,0.0,0.0,0
76f897717d325b35,1551763450572,484,-6145.0,-8705.0,10751.0,0.0,0.0,0.0,0.0,0.0,0.0,0
76f897717d325b35,1551763450601,485,-5889.0,-8705.0,11007.0,0.0,0.0,0.0,0.0,0.0,0.0,0
76f897717d325b35,1551763450662,486,-6913.0,-7681.0,10495.0,0.0,0.0,0.0,0.0,0.0,0.0,0
76f897717d325b35,1551763450721,487,-7169.0,-7937.0,11007.0,0.0,0.0,0.0,0.0,0.0,0.0,0
76f897717d325b35,1551763450782,488,-6401.0,-8449.0,10239.0,0.0,0.0,0.0,0.0,0.0,0.0,0
76f897717d325b35,1551763450872,489,-6401.0,-8193.0,10495.0,0.0,0.0,0.0,0.0,0.0,0.0,0
76f897717d325b35,1551763450932,490,-6401.0,-8449.0,10751.0,0.0,0.0,0.0,0.0,0.0,0.0,0
76f897717d325b35,1551763450992,491,-5889.0,-8449.0,10751.0,0.0,0.0,0.0,0.0,0.0,0.0,0
76f897717d325b35,1551763451082,492,-5889.0,-8193.0,11007.0,0.0,0.0,0.0,0.0,0.0,0.0,0
76f897717d325b35,1551763451112,493,-6145.0,-8705.0,10239.0,0.0,0.0,0.0,0.0,0.0,0.0,0
76f897717d325b35,1551763451202,494,-5889.0,-8449.0,9983.0,0.0,0.0,0.0,0.0,0.0,0.0,0
76f897717d325b35,1551763451262,495,-5633.0,-8449.0,10239.0,0.0,0.0,0.0,0.0,0.0,0.0,0
76f897717d325b35,1551763451322,496,-5889.0,-8449.0,10751.0,0.0,0.0,0.0,0.0,0.0,0.0,0
76f897717d325b35,1551763451382,497,-5377.0,-8705.0,9727.0,0.0,0.0,0.0,0.0,0.0,0.0,0
76f897717d325b35,1551763451442,498,-6145.0,-8705.0,9983.0,0.0,0.0,0.0,0.0,0.0,0.0,0
76f897717d325b35,1551763451532,499,-6145.0,-8705.0,9983.0,0.0,0.0,0.0,0.0,0.0,0.0,0
76f897717d325b35,1551763451591,500,-5889.0,-8961.0,9983.0,0.0,0.0,0.0,0.0,0.0,0.0,0
76f897717d325b35,1551763451682,501,-5633.0,-8449.0,10495.0,0.0,0.0,0.0,0.0,0.0,0.0,0
76f897717d325b35,1551763451711,502,-5633.0,-8193.0,10751.0,0.0,0.0,0.0,0.0,0.0,0.0,0
76f897717d325b35,1551763451771,503,-5889.0,-8449.0,10751.0,0.0,0.0,0.0,0.0,0.0,0.0,0
76f897717d325b35,1551763451892,504,-5889.0,-8449.0,10495.0,0.0,0.0,0.0,0.0,0.0,0.0,0
76f897717d325b35,1551763451922,505,-5633.0,-8449.0,10239.0,0.0,0.0,0.0,0.0,0.0,0.0,0
76f897717d325b35,1551763451982,506,-5889.0,-8705.0,10239.0,0.0,0.0,0.0,0.0,0.0,0.0,0
76f897717d325b35,1551763452071,507,-5377.0,-8961.0,9983.0,0.0,0.0,0.0,0.0,0.0,0.0,0
76f897717d325b35,1551763452102,508,-5377.0,-8449.0,9983.0,0.0,0.0,0.0,0.0,0.0,0.0,0
76f897717d325b35,1551763452192,509,-4865.0,-8961.0,10239.0,0.0,0.0,0.0,0.0,0.0,0.0,0
76f897717d325b35,1551763452252,510,-5121.0,-8705.0,9983.0,0.0,0.0,0.0,0.0,0.0,0.0,0
76f897717d325b35,1551763452312,511,-5377.0,-8193.0,9983.0,0.0,0.0,0.0,0.0,0.0,0.0,0
76f897717d325b35,1551763452371,512,-4609.0,-8705.0,10239.0,0.0,0.0,0.0,0.0,0.0,0.0,0
76f897717d325b35,1551763452432,513,-4609.0,-9217.0,10239.0,0.0,0.0,0.0,0.0,0.0,0.0,0
76f897717d325b35,1551763452552,514,-4865.0,-8961.0,9727.0,0.0,0.0,0.0,0.0,0.0,0.0,0
76f897717d325b35,1551763452611,515,-4609.0,-9217.0,9727.0,0.0,0.0,0.0,0.0,0.0,0.0,0
76f897717d325b35,1551763452642,516,-4609.0,-8705.0,9983.0,0.0,0.0,0.0,0.0,0.0,0.0,0
76f897717d325b35,1551763452702,517,-4353.0,-8449.0,10495.0,0.0,0.0,0.0,0.0,0.0,0.0,0
76f897717d325b35,1551763452762,518,-4609.0,-8705.0,10495.0,0.0,0.0,0.0,0.0,0.0,0.0,0
76f897717d325b35,1551763452851,519,-4865.0,-8449.0,9983.0,0.0,0.0,0.0,0.0,0.0,0.0,0
76f897717d325b35,1551763452912,520,-4865.0,-8705.0,9215.0,0.0,0.0,0.0,0.0,0.0,0.0,0
76f897717d325b35,1551763452971,521,-5121.0,-8449.0,9727.0,0.0,0.0,0.0,0.0,0.0,0.0,0
76f897717d325b35,1551763453032,522,-4865.0,-8705.0,9471.0,0.0,0.0,0.0,0.0,0.0,0.0,0
76f897717d325b35,1551763453092,523,-4865.0,-8705.0,9215.0,0.0,0.0,0.0,0.0,0.0,0.0,0
76f897717d325b35,1551763453213,524,-5121.0,-8961.0,8959.0,0.0,0.0,0.0,0.0,0.0,0.0,0
76f897717d325b35,1551763453242,525,-5633.0,-9473.0,8191.0,0.0,0.0,0.0,0.0,0.0,0.0,0
76f897717d325b35,1551763453331,526,-5121.0,-9217.0,8191.0,0.0,0.0,0.0,0.0,0.0,0.0,0
76f897717d325b35,1551763453361,527,-5121.0,-8961.0,7679.0,0.0,0.0,0.0,0.0,0.0,0.0,0
76f897717d325b35,1551763453422,528,-5633.0,-8449.0,7935.0,0.0,0.0,0.0,0.0,0.0,0.0,0
76f897717d325b35,1551763453512,529,-5889.0,-8449.0,7423.0,0.0,0.0,0.0,0.0,0.0,0.0,0
76f897717d325b35,1551763453571,530,-6401.0,-8449.0,7679.0,0.0,0.0,0.0,0.0,0.0,0.0,0
76f897717d325b35,1551763453632,531,-6145.0,-8449.0,7935.0,0.0,0.0,0.0,0.0,0.0,0.0,0
76f897717d325b35,1551763453692,532,-6401.0,-8449.0,7423.0,0.0,0.0,0.0,0.0,0.0,0.0,0
76f897717d325b35,1551763453752,533,-5889.0,-8193.0,7423.0,0.0,0.0,0.0,0.0,0.0,0.0,0
76f897717d325b35,1551763453842,534,-6145.0,-8449.0,7167.0,0.0,0.0,0.0,0.0,0.0,0.0,0
76f897717d325b35,1551763453902,535,-6145.0,-8193.0,7423.0,0.0,0.0,0.0,0.0,0.0,0.0,0
76f897717d325b35,1551763453962,536,-6145.0,-8193.0,7167.0,0.0,0.0,0.0,0.0,0.0,0.0,0
76f897717d325b35,1551763454052,537,-6145.0,-8449.0,7423.0,0.0,0.0,0.0,0.0,0.0,0.0,0
76f897717d325b35,1551763454082,538,-6401.0,-8705.0,7423.0,0.0,0.0,0.0,0.0,0.0,0.0,0
76f897717d325b35,1551763454171,539,-6401.0,-8449.0,7423.0,0.0,0.0,0.0,0.0,0.0,0.0,0
76f897717d325b35,1551763454232,540,-6145.0,-8449.0,7423.0,0.0,0.0,0.0,0.0,0.0,0.0,0
76f897717d325b35,1551763454292,541,-6401.0,-8193.0,7679.0,0.0,0.0,0.0,0.0,0.0,0.0,0
76f897717d325b35,1551763454352,542,-6401.0,-8449.0,7679.0,0.0,0.0,0.0,0.0,0.0,0.0,0
76f897717d325b35,1551763454412,543,-5889.0,-7937.0,7423.0,0.0,0.0,0.0,0.0,0.0,0.0,0
76f897717d325b35,1551763454561,544,-6145.0,-8449.0,7167.0,0.0,0.0,0.0,0.0,0.0,0.0,0
76f897717d325b35,1551763454591,545,-5889.0,-8449.0,7423.0,0.0,0.0,0.0,0.0,0.0,0.0,0
76f897717d325b35,1551763454711,546,-6145.0,-8449.0,7167.0,0.0,0.0,0.0,0.0,0.0,0.0,0
76f897717d325b35,1551763454951,547,-6145.0,-8449.0,7423.0,0.0,0.0,0.0,0.0,0.0,0.0,0
76f897717d325b35,1551763454952,548,-6145.0,-8449.0,7423.0,0.0,0.0,0.0,0.0,0.0,0.0,0
76f897717d325b35,1551763454954,549,-6145.0,-8449.0,7423.0,0.0,0.0,0.0,0.0,0.0,0.0,0
76f897717d325b35,1551763455071,550,-6145.0,-8449.0,7423.0,0.0,0.0,0.0,0.0,0.0,0.0,0
76f897717d325b35,1551763455072,551,-6145.0,-8449.0,7423.0,0.0,0.0,0.0,0.0,0.0,0.0,0
76f897717d325b35,1551763455073,552,-6145.0,-8449.0,7423.0,0.0,0.0,0.0,0.0,0.0,0.0,0
76f897717d325b35,1551763455074,553,-6145.0,-8449.0,7423.0,0.0,0.0,0.0,0.0,0.0,0.0,0
76f897717d325b35,1551763455401,554,-6145.0,-8449.0,7167.0,0.0,0.0,0.0,0.0,0.0,0.0,0
76f897717d325b35,1551763455491,555,-6145.0,-8449.0,7423.0,0.0,0.0,0.0,0.0,0.0,0.0,0
76f897717d325b35,1551763455492,556,-6145.0,-8449.0,7423.0,0.0,0.0,0.0,0.0,0.0,0.0,0
76f897717d325b35,1551763455732,557,-6145.0,-8193.0,7423.0,0.0,0.0,0.0,0.0,0.0,0.0,0
76f897717d325b35,1551763455733,558,-6145.0,-8193.0,7423.0,0.0,0.0,0.0,0.0,0.0,0.0,0
76f897717d325b35,1551763455791,559,-6145.0,-8449.0,7167.0,0.0,0.0,0.0,0.0,0.0,0.0,0
76f897717d325b35,1551763461083,560,-6145.0,-8449.0,7423.0,0.0,0.0,0.0,0.0,0.0,0.0,0
76f897717d325b35,1551763461085,561,-6145.0,-8449.0,7423.0,0.0,0.0,0.0,0.0,0.0,0.0,0
76f897717d325b35,1551763461086,562,-6145.0,-8449.0,7423.0,0.0,0.0,0.0,0.0,0.0,0.0,0
76f897717d325b35,1551763461087,563,-6145.0,-8449.0,7423.0,0.0,0.0,0.0,0.0,0.0,0.0,0
76f897717d325b35,1551763461088,564,-6145.0,-8449.0,7423.0,0.0,0.0,0.0,0.0,0.0,0.0,0
76f897717d325b35,1551763461263,565,-6145.0,-8193.0,7423.0,0.0,0.0,0.0,0.0,0.0,0.0,0
76f897717d325b35,1551763461265,566,-6401.0,-8193.0,7423.0,0.0,0.0,0.0,0.0,0.0,0.0,0
76f897717d325b35,1551763461266,567,-6401.0,-8193.0,7423.0,0.0,0.0,0.0,0.0,0.0,0.0,0
76f897717d325b35,1551763461383,568,-6145.0,-8193.0,7423.0,0.0,0.0,0.0,0.0,0.0,0.0,0
76f897717d325b35,1551763461414,569,-6401.0,-8449.0,7423.0,0.0,0.0,0.0,0.0,0.0,0.0,0
76f897717d325b35,1551763461415,570,-6145.0,-8193.0,7423.0,0.0,0.0,0.0,0.0,0.0,0.0,0
76f897717d325b35,1551763461533,571,-6401.0,-8449.0,7423.0,0.0,0.0,0.0,0.0,0.0,0.0,0
76f897717d325b35,1551763461563,572,-6145.0,-8193.0,7423.0,0.0,0.0,0.0,0.0,0.0,0.0,0
76f897717d325b35,1551763461565,573,-6145.0,-8193.0,7423.0,0.0,0.0,0.0,0.0,0.0,0.0,0
76f897717d325b35,1551763461714,574,-6401.0,-8193.0,7423.0,0.0,0.0,0.0,0.0,0.0,0.0,0
76f897717d325b35,1551763461715,575,-6401.0,-8193.0,7423.0,0.0,0.0,0.0,0.0,0.0,0.0,0
76f897717d325b35,1551763461744,576,-6401.0,-8449.0,7423.0,0.0,0.0,0.0,0.0,0.0,0.0,0
76f897717d325b35,1551763461893,577,-6401.0,-8193.0,7423.0,0.0,0.0,0.0,0.0,0.0,0.0,0
76f897717d325b35,1551763461895,578,-6145.0,-8193.0,7423.0,0.0,0.0,0.0,0.0,0.0,0.0,0
76f897717d325b35,1551763461896,579,-6145.0,-8193.0,7423.0,0.0,0.0,0.0,0.0,0.0,0.0,0
76f897717d325b35,1551763462013,580,-6145.0,-8449.0,7423.0,0.0,0.0,0.0,0.0,0.0,0.0,0
76f897717d325b35,1551763462044,581,-6401.0,-8193.0,7423.0,0.0,0.0,0.0,0.0,0.0,0.0,0
76f897717d325b35,1551763462163,582,-6145.0,-8449.0,7423.0,0.0,0.0,0.0,0.0,0.0,0.0,0
76f897717d325b35,1551763462164,583,-6145.0,-8193.0,7423.0,0.0,0.0,0.0,0.0,0.0,0.0,0
76f897717d325b35,1551763462343,584,-6401.0,-8193.0,7423.0,0.0,0.0,0.0,0.0,0.0,0.0,0
76f897717d325b35,1551763462345,585,-6401.0,-8193.0,7423.0,0.0,0.0,0.0,0.0,0.0,0.0,0
76f897717d325b35,1551763462346,586,-6145.0,-8449.0,7423.0,0.0,0.0,0.0,0.0,0.0,0.0,0
76f897717d325b35,1551763462348,587,-6401.0,-8449.0,7423.0,0.0,0.0,0.0,0.0,0.0,0.0,0
76f897717d325b35,1551763462523,588,-6401.0,-8193.0,7423.0,0.0,0.0,0.0,0.0,0.0,0.0,0
76f897717d325b35,1551763462524,589,-6401.0,-8193.0,7423.0,0.0,0.0,0.0,0.0,0.0,0.0,0
76f897717d325b35,1551763462526,590,-6401.0,-8449.0,7423.0,0.0,0.0,0.0,0.0,0.0,0.0,0
76f897717d325b35,1551763462526,591,-6401.0,-8449.0,7423.0,0.0,0.0,0.0,0.0,0.0,0.0,0
76f897717d325b35,1551763462614,592,-6145.0,-8449.0,7423.0,0.0,0.0,0.0,0.0,0.0,0.0,0
76f897717d325b35,1551763462674,593,-6401.0,-8193.0,7423.0,0.0,0.0,0.0,0.0,0.0,0.0,0
76f897717d325b35,1551763462764,594,-6401.0,-8449.0,7423.0,0.0,0.0,0.0,0.0,0.0,0.0,0
76f897717d325b35,1551763462794,595,-6145.0,-8193.0,7423.0,0.0,0.0,0.0,0.0,0.0,0.0,0
76f897717d325b35,1551763462853,596,-6145.0,-8449.0,7423.0,0.0,0.0,0.0,0.0,0.0,0.0,0
76f897717d325b35,1551763462944,597,-6145.0,-8449.0,7423.0,0.0,0.0,0.0,0.0,0.0,0.0,0
76f897717d325b35,1551763463004,598,-6145.0,-8449.0,7423.0,0.0,0.0,0.0,0.0,0.0,0.0,0
76f897717d325b35,1551763463064,599,-6401.0,-8449.0,7423.0,0.0,0.0,0.0,0.0,0.0,0.0,0
76f897717d325b35,1551763463124,600,-6401.0,-8193.0,7423.0,0.0,0.0,0.0,0.0,0.0,0.0,0
76f897717d325b35,1551763463273,601,-6145.0,-8449.0,7423.0,0.0,0.0,0.0,0.0,0.0,0.0,0
76f897717d325b35,1551763463303,602,-6401.0,-8449.0,7423.0,0.0,0.0,0.0,0.0,0.0,0.0,0
76f897717d325b35,1551763463364,603,-6145.0,-8449.0,7423.0,0.0,0.0,0.0,0.0,0.0,0.0,0
76f897717d325b35,1551763463394,604,-6401.0,-8449.0,7423.0,0.0,0.0,0.0,0.0,0.0,0.0,0
76f897717d325b35,1551763463453,605,-6401.0,-8193.0,7423.0,0.0,0.0,0.0,0.0,0.0,0.0,0
76f897717d325b35,1551763463574,606,-6145.0,-8193.0,7423.0,0.0,0.0,0.0,0.0,0.0,0.0,0
76f897717d325b35,1551763463604,607,-6401.0,-8193.0,7423.0,0.0,0.0,0.0,0.0,0.0,0.0,0
76f897717d325b35,1551763463694,608,-6145.0,-8449.0,7423.0,0.0,0.0,0.0,0.0,0.0,0.0,0
76f897717d325b35,1551763463724,609,-6401.0,-8449.0,7423.0,0.0,0.0,0.0,0.0,0.0,0.0,0
76f897717d325b35,1551763463814,610,-6401.0,-8193.0,7423.0,0.0,0.0,0.0,0.0,0.0,0.0,0
76f897717d325b35,1551763463874,611,-6401.0,-8193.0,7423.0,0.0,0.0,0.0,0.0,0.0,0.0,0
76f897717d325b35,1551763463993,612,-6145.0,-8449.0,7423.0,0.0,0.0,0.0,0.0,0.0,0.0,0
76f897717d325b35,1551763463994,613,-6401.0,-8193.0,7423.0,0.0,0.0,0.0,0.0,0.0,0.0,0
76f897717d325b35,1551763464084,614,-6401.0,-8193.0,7423.0,0.0,0.0,0.0,0.0,0.0,0.0,0
76f897717d325b35,1551763464173,615,-6401.0,-8193.0,7423.0,0.0,0.0,0.0,0.0,0.0,0.0,0
76f897717d325b35,1551763464175,616,-6145.0,-8449.0,7423.0,0.0,0.0,0.0,0.0,0.0,0.0,0
76f897717d325b35,1551763464293,617,-6145.0,-8193.0,7423.0,0.0,0.0,0.0,0.0,0.0,0.0,0
76f897717d325b35,1551763464324,618,-6401.0,-8449.0,7423.0,0.0,0.0,0.0,0.0,0.0,0.0,0
76f897717d325b35,1551763464504,619,-6401.0,-8193.0,7423.0,0.0,0.0,0.0,0.0,0.0,0.0,0
76f897717d325b35,1551763464593,620,-6145.0,-8449.0,7423.0,0.0,0.0,0.0,0.0,0.0,0.0,0
76f897717d325b35,1551763464595,621,-6401.0,-8449.0,7423.0,0.0,0.0,0.0,0.0,0.0,0.0,0
76f897717d325b35,1551763464624,622,-6401.0,-8193.0,7423.0,0.0,0.0,0.0,0.0,0.0,0.0,0
76f897717d325b35,1551763464654,623,-6401.0,-8193.0,7423.0,0.0,0.0,0.0,0.0,0.0,0.0,0
76f897717d325b35,1551763464714,624,-6401.0,-8449.0,7423.0,0.0,0.0,0.0,0.0,0.0,0.0,0
76f897717d325b35,1551763464894,625,-6401.0,-8449.0,7423.0,0.0,0.0,0.0,0.0,0.0,0.0,0
76f897717d325b35,1551763464897,626,-6401.0,-8193.0,7423.0,0.0,0.0,0.0,0.0,0.0,0.0,0
76f897717d325b35,1551763465043,627,-6145.0,-8449.0,7423.0,0.0,0.0,0.0,0.0,0.0,0.0,0
76f897717d325b35,1551763465044,628,-6145.0,-8193.0,7423.0,0.0,0.0,0.0,0.0,0.0,0.0,0
76f897717d325b35,1551763465103,629,-6401.0,-8193.0,7423.0,0.0,0.0,0.0,0.0,0.0,0.0,0
76f897717d325b35,1551763465104,630,-6401.0,-8193.0,7423.0,0.0,0.0,0.0,0.0,0.0,0.0,0
76f897717d325b35,1551763465224,631,-6401.0,-8193.0,7423.0,0.0,0.0,0.0,0.0,0.0,0.0,0
76f897717d325b35,1551763465433,632,-6401.0,-8193.0,7423.0,0.0,0.0,0.0,0.0,0.0,0.0,0
76f897717d325b35,1551763465823,633,-6401.0,-8193.0,7423.0,0.0,0.0,0.0,0.0,0.0,0.0,0
76f897717d325b35,1551763465853,634,-6401.0,-8193.0,7423.0,0.0,0.0,0.0,0.0,0.0,0.0,0
76f897717d325b35,1551763465854,635,-6401.0,-8193.0,7423.0,0.0,0.0,0.0,0.0,0.0,0.0,0
76f897717d325b35,1551763465856,636,-6401.0,-8193.0,7423.0,0.0,0.0,0.0,0.0,0.0,0.0,0
76f897717d325b35,1551763465856,637,-6401.0,-8193.0,7423.0,0.0,0.0,0.0,0.0,0.0,0.0,0
76f897717d325b35,1551763465883,638,-6401.0,-8193.0,7423.0,0.0,0.0,0.0,0.0,0.0,0.0,0
76f897717d325b35,1551763465973,639,-6401.0,-8193.0,7423.0,0.0,0.0,0.0,0.0,0.0,0.0,0
76f897717d325b35,1551763465974,640,-6401.0,-8193.0,7423.0,0.0,0.0,0.0,0.0,0.0,0.0,0
76f897717d325b35,1551763466063,641,-6401.0,-8449.0,7423.0,0.0,0.0,0.0,0.0,0.0,0.0,0
76f897717d325b35,1551763466333,642,-6401.0,-8449.0,7423.0,0.0,0.0,0.0,0.0,0.0,0.0,0
76f897717d325b35,1551763466542,643,-6401.0,-8449.0,7423.0,0.0,0.0,0.0,0.0,0.0,0.0,0
76f897717d325b35,1551763466544,644,-6401.0,-8193.0,7423.0,0.0,0.0,0.0,0.0,0.0,0.0,0
76f897717d325b35,1551763466545,645,-6401.0,-8193.0,7423.0,0.0,0.0,0.0,0.0,0.0,0.0,0
76f897717d325b35,1551763466546,646,-6401.0,-8449.0,7423.0,0.0,0.0,0.0,0.0,0.0,0.0,0
76f897717d325b35,1551763466547,647,-6401.0,-8193.0,7423.0,0.0,0.0,0.0,0.0,0.0,0.0,0
76f897717d325b35,1551763466548,648,-6401.0,-8193.0,7423.0,0.0,0.0,0.0,0.0,0.0,0.0,0
76f897717d325b35,1551763466963,649,-6401.0,-8449.0,7423.0,0.0,0.0,0.0,0.0,0.0,0.0,0
76f897717d325b35,1551763467263,650,-6401.0,-8193.0,7423.0,0.0,0.0,0.0,0.0,0.0,0.0,0
76f897717d325b35,1551763467473,651,-6401.0,-8193.0,7423.0,0.0,0.0,0.0,0.0,0.0,0.0,0
76f897717d325b35,1551763467653,652,-6401.0,-8193.0,7423.0,0.0,0.0,0.0,0.0,0.0,0.0,0
76f897717d325b35,1551763467655,653,-6401.0,-8193.0,7423.0,0.0,0.0,0.0,0.0,0.0,0.0,0
76f897717d325b35,1551763467656,654,-6401.0,-8449.0,7423.0,0.0,0.0,0.0,0.0,0.0,0.0,0
76f897717d325b35,1551763467658,655,-6401.0,-8193.0,7423.0,0.0,0.0,0.0,0.0,0.0,0.0,0
76f897717d325b35,1551763467659,656,-6401.0,-8193.0,7423.0,0.0,0.0,0.0,0.0,0.0,0.0,0
76f897717d325b35,1551763467660,657,-6401.0,-8193.0,7423.0,0.0,0.0,0.0,0.0,0.0,0.0,0
76f897717d325b35,1551763467661,658,-6401.0,-8449.0,7423.0,0.0,0.0,0.0,0.0,0.0,0.0,0
76f897717d325b35,1551763467953,659,-6401.0,-8449.0,7423.0,0.0,0.0,0.0,0.0,0.0,0.0,0
76f897717d325b35,1551763467954,660,-6401.0,-8449.0,7423.0,0.0,0.0,0.0,0.0,0.0,0.0,0
76f897717d325b35,1551763467955,661,-6401.0,-8449.0,7423.0,0.0,0.0,0.0,0.0,0.0,0.0,0
76f897717d325b35,1551763467956,662,-6401.0,-8193.0,7423.0,0.0,0.0,0.0,0.0,0.0,0.0,0
76f897717d325b35,1551763468073,663,-6401.0,-8449.0,7423.0,0.0,0.0,0.0,0.0,0.0,0.0,0
76f897717d325b35,1551763468074,664,-6401.0,-8449.0,7423.0,0.0,0.0,0.0,0.0,0.0,0.0,0
76f897717d325b35,1551763468076,665,-6401.0,-8449.0,7423.0,0.0,0.0,0.0,0.0,0.0,0.0,0
76f897717d325b35,1551763468194,666,-6401.0,-8193.0,7423.0,0.0,0.0,0.0,0.0,0.0,0.0,0
76f897717d325b35,1551763468283,667,-6401.0,-8193.0,7423.0,0.0,0.0,0.0,0.0,0.0,0.0,0
76f897717d325b35,1551763468284,668,-6401.0,-8449.0,7423.0,0.0,0.0,0.0,0.0,0.0,0.0,0
76f897717d325b35,1551763468344,669,-6401.0,-8193.0,7423.0,0.0,0.0,0.0,0.0,0.0,0.0,0
76f897717d325b35,1551763468404,670,-6401.0,-8449.0,7423.0,0.0,0.0,0.0,0.0,0.0,0.0,0
76f897717d325b35,1551763468763,671,-6401.0,-8449.0,7423.0,0.0,0.0,0.0,0.0,0.0,0.0,0
76f897717d325b35,1551763469123,672,-6401.0,-8449.0,7423.0,0.0,0.0,0.0,0.0,0.0,0.0,0
76f897717d325b35,1551763469124,673,-6401.0,-8449.0,7423.0,0.0,0.0,0.0,0.0,0.0,0.0,0
76f897717d325b35,1551763469183,674,-6401.0,-8193.0,7423.0,0.0,0.0,0.0,0.0,0.0,0.0,0
76f897717d325b35,1551763469303,675,-6401.0,-8193.0,7423.0,0.0,0.0,0.0,0.0,0.0,0.0,0
76f897717d325b35,1551763469304,676,-6401.0,-8449.0,7423.0,0.0,0.0,0.0,0.0,0.0,0.0,0
76f897717d325b35,1551763469305,677,-6401.0,-8193.0,7423.0,0.0,0.0,0.0,0.0,0.0,0.0,0
76f897717d325b35,1551763469306,678,-6401.0,-8449.0,7423.0,0.0,0.0,0.0,0.0,0.0,0.0,0
76f897717d325b35,1551763469363,679,-6401.0,-8449.0,7423.0,0.0,0.0,0.0,0.0,0.0,0.0,0
76f897717d325b35,1551763469364,680,-6401.0,-8449.0,7423.0,0.0,0.0,0.0,0.0,0.0,0.0,0
76f897717d325b35,1551763469393,681,-6401.0,-8449.0,7423.0,0.0,0.0,0.0,0.0,0.0,0.0,0
76f897717d325b35,1551763469394,682,-6401.0,-8193.0,7423.0,0.0,0.0,0.0,0.0,0.0,0.0,0
76f897717d325b35,1551763469453,683,-6401.0,-8193.0,7423.0,0.0,0.0,0.0,0.0,0.0,0.0,0
76f897717d325b35,1551763488274,684,-5889.0,-8193.0,10239.0,0.0,0.0,0.0,0.0,0.0,0.0,0
76f897717d325b35,1551763488304,685,-6145.0,-8193.0,10751.0,0.0,0.0,0.0,0.0,0.0,0.0,0
76f897717d325b35,1551763488394,686,-6145.0,-8193.0,10495.0,0.0,0.0,0.0,0.0,0.0,0.0,0
76f897717d325b35,1551763488484,687,-6401.0,-7937.0,11263.0,0.0,0.0,0.0,0.0,0.0,0.0,0
76f897717d325b35,1551763488514,688,-6401.0,-7937.0,11007.0,0.0,0.0,0.0,0.0,0.0,0.0,0
76f897717d325b35,1551763488574,689,-6913.0,-8193.0,11007.0,0.0,0.0,0.0,0.0,0.0,0.0,0
76f897717d325b35,1551763488634,690,-6657.0,-8193.0,10751.0,0.0,0.0,0.0,0.0,0.0,0.0,0
76f897717d325b35,1551763488694,691,-6913.0,-7937.0,11007.0,0.0,0.0,0.0,0.0,0.0,0.0,0
76f897717d325b35,1551763488784,692,-6913.0,-8193.0,10239.0,0.0,0.0,0.0,0.0,0.0,0.0,0
76f897717d325b35,1551763488874,693,-6913.0,-7937.0,11007.0,0.0,0.0,0.0,0.0,0.0,0.0,0
76f897717d325b35,1551763488904,694,-6657.0,-7681.0,10751.0,0.0,0.0,0.0,0.0,0.0,0.0,0
76f897717d325b35,1551763488964,695,-7169.0,-7937.0,10495.0,0.0,0.0,0.0,0.0,0.0,0.0,0
76f897717d325b35,1551763489024,696,-6913.0,-8449.0,10751.0,0.0,0.0,0.0,0.0,0.0,0.0,0
76f897717d325b35,1551763489114,697,-6401.0,-8193.0,11007.0,0.0,0.0,0.0,0.0,0.0,0.0,0
76f897717d325b35,1551763489174,698,-6657.0,-7937.0,10751.0,0.0,0.0,0.0,0.0,0.0,0.0,0
76f897717d325b35,1551763489234,699,-6657.0,-7937.0,11007.0,0.0,0.0,0.0,0.0,0.0,0.0,0
76f897717d325b35,1551763489324,700,-6657.0,-8193.0,11007.0,0.0,0.0,0.0,0.0,0.0,0.0,0
76f897717d325b35,1551763489384,701,-6657.0,-7937.0,10751.0,0.0,0.0,0.0,0.0,0.0,0.0,0
76f897717d325b35,1551763489444,702,-6913.0,-7937.0,10751.0,0.0,0.0,0.0,0.0,0.0,0.0,0
76f897717d325b35,1551763489504,703,-6401.0,-8193.0,11007.0,0.0,0.0,0.0,0.0,0.0,0.0,0
76f897717d325b35,1551763489594,704,-6913.0,-8449.0,9983.0,0.0,0.0,0.0,0.0,0.0,0.0,0
76f897717d325b35,1551763489624,705,-6913.0,-7681.0,11007.0,0.0,0.0,0.0,0.0,0.0,0.0,0
76f897717d325b35,1551763489684,706,-6657.0,-8449.0,11263.0,0.0,0.0,0.0,0.0,0.0,0.0,0
76f897717d325b35,1551763489774,707,-6657.0,-7937.0,10495.0,0.0,0.0,0.0,0.0,0.0,0.0,0
76f897717d325b35,1551763489834,708,-7169.0,-7681.0,11007.0,0.0,0.0,0.0,0.0,0.0,0.0,0
76f897717d325b35,1551763489894,709,-6657.0,-8193.0,10495.0,0.0,0.0,0.0,0.0,0.0,0.0,0
76f897717d325b35,1551763489954,710,-6913.0,-8193.0,10751.0,0.0,0.0,0.0,0.0,0.0,0.0,0
76f897717d325b35,1551763490014,711,-6913.0,-8193.0,10751.0,0.0,0.0,0.0,0.0,0.0,0.0,0
76f897717d325b35,1551763490104,712,-6657.0,-8193.0,10495.0,0.0,0.0,0.0,0.0,0.0,0.0,0
76f897717d325b35,1551763490194,713,-6657.0,-8193.0,10495.0,0.0,0.0,0.0,0.0,0.0,0.0,0
76f897717d325b35,1551763490223,714,-6913.0,-8193.0,10239.0,0.0,0.0,0.0,0.0,0.0,0.0,0
76f897717d325b35,1551763490225,715,-6913.0,-8193.0,10239.0,0.0,0.0,0.0,0.0,0.0,0.0,0
76f897717d325b35,1551763490284,716,-6913.0,-8193.0,10495.0,0.0,0.0,0.0,0.0,0.0,0.0,0
76f897717d325b35,1551763490344,717,-6657.0,-8193.0,10495.0,0.0,0.0,0.0,0.0,0.0,0.0,0
76f897717d325b35,1551763490434,718,-6657.0,-8193.0,10495.0,0.0,0.0,0.0,0.0,0.0,0.0,0
76f897717d325b35,1551763490494,719,-6657.0,-8193.0,10495.0,0.0,0.0,0.0,0.0,0.0,0.0,0
76f897717d325b35,1551763490554,720,-6657.0,-8193.0,10239.0,0.0,0.0,0.0,0.0,0.0,0.0,0
76f897717d325b35,1551763490614,721,-6913.0,-8193.0,10239.0,0.0,0.0,0.0,0.0,0.0,0.0,0
76f897717d325b35,1551763490674,722,-6913.0,-8193.0,10239.0,0.0,0.0,0.0,0.0,0.0,0.0,0
76f897717d325b35,1551763490764,723,-6913.0,-8193.0,10239.0,0.0,0.0,0.0,0.0,0.0,0.0,0
76f897717d325b35,1551763490824,724,-6913.0,-8193.0,10239.0,0.0,0.0,0.0,0.0,0.0,0.0,0
76f897717d325b35,1551763490915,725,-6913.0,-8193.0,10239.0,0.0,0.0,0.0,0.0,0.0,0.0,0
76f897717d325b35,1551763490944,726,-6657.0,-8193.0,10239.0,0.0,0.0,0.0,0.0,0.0,0.0,0
76f897717d325b35,1551763491004,727,-6913.0,-8193.0,10239.0,0.0,0.0,0.0,0.0,0.0,0.0,0
76f897717d325b35,1551763491094,728,-6913.0,-8193.0,10495.0,0.0,0.0,0.0,0.0,0.0,0.0,0
76f897717d325b35,1551763491154,729,-6913.0,-8193.0,10495.0,0.0,0.0,0.0,0.0,0.0,0.0,0
76f897717d325b35,1551763491214,730,-6913.0,-8193.0,10495.0,0.0,0.0,0.0,0.0,0.0,0.0,0
76f897717d325b35,1551763491274,731,-6913.0,-8193.0,10495.0,0.0,0.0,0.0,0.0,0.0,0.0,0
76f897717d325b35,1551763491334,732,-6657.0,-8193.0,10495.0,0.0,0.0,0.0,0.0,0.0,0.0,0
76f897717d325b35,1551763491454,733,-6913.0,-8193.0,10495.0,0.0,0.0,0.0,0.0,0.0,0.0,0
76f897717d325b35,1551763491484,734,-6657.0,-8193.0,10495.0,0.0,0.0,0.0,0.0,0.0,0.0,0
76f897717d325b35,1551763491544,735,-6657.0,-8193.0,10495.0,0.0,0.0,0.0,0.0,0.0,0.0,0
76f897717d325b35,1551763491604,736,-6657.0,-8193.0,10495.0,0.0,0.0,0.0,0.0,0.0,0.0,0
76f897717d325b35,1551763491664,737,-6913.0,-8193.0,10495.0,0.0,0.0,0.0,0.0,0.0,0.0,0
76f897717d325b35,1551763491754,738,-6657.0,-8193.0,10495.0,0.0,0.0,0.0,0.0,0.0,0.0,0
76f897717d325b35,1551763491814,739,-6657.0,-8193.0,10495.0,0.0,0.0,0.0,0.0,0.0,0.0,0
76f897717d325b35,1551763491933,740,-6657.0,-8193.0,10495.0,0.0,0.0,0.0,0.0,0.0,0.0,0
76f897717d325b35,1551763491935,741,-6657.0,-8193.0,10495.0,0.0,0.0,0.0,0.0,0.0,0.0,0
76f897717d325b35,1551763492024,742,-6913.0,-8193.0,10495.0,0.0,0.0,0.0,0.0,0.0,0.0,0
76f897717d325b35,1551763492084,743,-6913.0,-8193.0,10495.0,0.0,0.0,0.0,0.0,0.0,0.0,0
76f897717d325b35,1551763492144,744,-6657.0,-8193.0,10495.0,0.0,0.0,0.0,0.0,0.0,0.0,0
76f897717d325b35,1551763492204,745,-6913.0,-8193.0,10495.0,0.0,0.0,0.0,0.0,0.0,0.0,0
76f897717d325b35,1551763492264,746,-6657.0,-8193.0,10495.0,0.0,0.0,0.0,0.0,0.0,0.0,0
76f897717d325b35,1551763492324,747,-6913.0,-8193.0,10495.0,0.0,0.0,0.0,0.0,0.0,0.0,0
76f897717d325b35,1551763492414,748,-6657.0,-8193.0,10495.0,0.0,0.0,0.0,0.0,0.0,0.0,0
76f897717d325b35,1551763492474,749,-6657.0,-8193.0,10495.0,0.0,0.0,0.0,0.0,0.0,0.0,0
76f897717d325b35,1551763492534,750,-6657.0,-8193.0,10495.0,0.0,0.0,0.0,0.0,0.0,0.0,0
76f897717d325b35,1551763492653,751,-6913.0,-8193.0,10495.0,0.0,0.0,0.0,0.0,0.0,0.0,0
76f897717d325b35,1551763492655,752,-6657.0,-8193.0,10495.0,0.0,0.0,0.0,0.0,0.0,0.0,0
76f897717d325b35,1551763492744,753,-6657.0,-8193.0,10495.0,0.0,0.0,0.0,0.0,0.0,0.0,0
76f897717d325b35,1551763492834,754,-6657.0,-8193.0,10495.0,0.0,0.0,0.0,0.0,0.0,0.0,0
76f897717d325b35,1551763492864,755,-6657.0,-8193.0,10495.0,0.0,0.0,0.0,0.0,0.0,0.0,0
76f897717d325b35,1551763492955,756,-6657.0,-8193.0,10495.0,0.0,0.0,0.0,0.0,0.0,0.0,0
76f897717d325b35,1551763492984,757,-6657.0,-8193.0,10495.0,0.0,0.0,0.0,0.0,0.0,0.0,0
76f897717d325b35,1551763493074,758,-6657.0,-8193.0,10495.0,0.0,0.0,0.0,0.0,0.0,0.0,0
76f897717d325b35,1551763493134,759,-6657.0,-8193.0,10495.0,0.0,0.0,0.0,0.0,0.0,0.0,0
76f897717d325b35,1551763493194,760,-6657.0,-8193.0,10495.0,0.0,0.0,0.0,0.0,0.0,0.0,0
76f897717d325b35,1551763493254,761,-6657.0,-8193.0,10495.0,0.0,0.0,0.0,0.0,0.0,0.0,0
76f897717d325b35,1551763493374,762,-6657.0,-8193.0,10239.0,0.0,0.0,0.0,0.0,0.0,0.0,0
76f897717d325b35,1551763493404,763,-6657.0,-8193.0,10495.0,0.0,0.0,0.0,0.0,0.0,0.0,0
76f897717d325b35,1551763493464,764,-6657.0,-8193.0,10239.0,0.0,0.0,0.0,0.0,0.0,0.0,0
76f897717d325b35,1551763493524,765,-6657.0,-8193.0,10495.0,0.0,0.0,0.0,0.0,0.0,0.0,0
76f897717d325b35,1551763493584,766,-6657.0,-8193.0,10495.0,0.0,0.0,0.0,0.0,0.0,0.0,0
76f897717d325b35,1551763493674,767,-6657.0,-8193.0,10495.0,0.0,0.0,0.0,0.0,0.0,0.0,0
76f897717d325b35,1551763493794,768,-6657.0,-8193.0,10495.0,0.0,0.0,0.0,0.0,0.0,0.0,0
76f897717d325b35,1551763493795,769,-6657.0,-8193.0,10495.0,0.0,0.0,0.0,0.0,0.0,0.0,0
76f897717d325b35,1551763493884,770,-6913.0,-8193.0,10495.0,0.0,0.0,0.0,0.0,0.0,0.0,0
76f897717d325b35,1551763493914,771,-6657.0,-8193.0,10495.0,0.0,0.0,0.0,0.0,0.0,0.0,0
76f897717d325b35,1551763493974,772,-6657.0,-8193.0,10495.0,0.0,0.0,0.0,0.0,0.0,0.0,0
76f897717d325b35,1551763494094,773,-6657.0,-8193.0,10495.0,0.0,0.0,0.0,0.0,0.0,0.0,0
76f897717d325b35,1551763494124,774,-6657.0,-8193.0,10495.0,0.0,0.0,0.0,0.0,0.0,0.0,0
76f897717d325b35,1551763494184,775,-6657.0,-8193.0,10495.0,0.0,0.0,0.0,0.0,0.0,0.0,0
76f897717d325b35,1551763494274,776,-6657.0,-8193.0,10495.0,0.0,0.0,0.0,0.0,0.0,0.0,0
76f897717d325b35,1551763494304,777,-6657.0,-8193.0,10239.0,0.0,0.0,0.0,0.0,0.0,0.0,0
76f897717d325b35,1551763494394,778,-6657.0,-8193.0,10239.0,0.0,0.0,0.0,0.0,0.0,0.0,0
76f897717d325b35,1551763494484,779,-6657.0,-8193.0,10239.0,0.0,0.0,0.0,0.0,0.0,0.0,0
76f897717d325b35,1551763494514,780,-6657.0,-8193.0,10495.0,0.0,0.0,0.0,0.0,0.0,0.0,0
76f897717d325b35,1551763494604,781,-6657.0,-8193.0,10495.0,0.0,0.0,0.0,0.0,0.0,0.0,0
76f897717d325b35,1551763494634,782,-6657.0,-8193.0,10239.0,0.0,0.0,0.0,0.0,0.0,0.0,0
76f897717d325b35,1551763494724,783,-6657.0,-8193.0,10495.0,0.0,0.0,0.0,0.0,0.0,0.0,0
76f897717d325b35,1551763494784,784,-6657.0,-8193.0,10495.0,0.0,0.0,0.0,0.0,0.0,0.0,0
76f897717d325b35,1551763494844,785,-6657.0,-8193.0,10239.0,0.0,0.0,0.0,0.0,0.0,0.0,0
76f897717d325b35,1551763494904,786,-6657.0,-8193.0,10495.0,0.0,0.0,0.0,0.0,0.0,0.0,0
76f897717d325b35,1551763494963,787,-6657.0,-8193.0,10239.0,0.0,0.0,0.0,0.0,0.0,0.0,0
76f897717d325b35,1551763495054,788,-6657.0,-8193.0,10495.0,0.0,0.0,0.0,0.0,0.0,0.0,0
76f897717d325b35,1551763495114,789,-6657.0,-8193.0,10495.0,0.0,0.0,0.0,0.0,0.0,0.0,0
76f897717d325b35,1551763495174,790,-6657.0,-8193.0,10495.0,0.0,0.0,0.0,0.0,0.0,0.0,0
76f897717d325b35,1551763495234,791,-6657.0,-8193.0,10495.0,0.0,0.0,0.0,0.0,0.0,0.0,0
76f897717d325b35,1551763495294,792,-6657.0,-8193.0,10495.0,0.0,0.0,0.0,0.0,0.0,0.0,0
76f897717d325b35,1551763495413,793,-6657.0,-8193.0,10239.0,0.0,0.0,0.0,0.0,0.0,0.0,0
76f897717d325b35,1551763495444,794,-6657.0,-8193.0,10495.0,0.0,0.0,0.0,0.0,0.0,0.0,0
76f897717d325b35,1551763495563,795,-6657.0,-8193.0,10495.0,0.0,0.0,0.0,0.0,0.0,0.0,0
76f897717d325b35,1551763495564,796,-6657.0,-8193.0,10495.0,0.0,0.0,0.0,0.0,0.0,0.0,0
76f897717d325b35,1551763495624,797,-6657.0,-8193.0,10495.0,0.0,0.0,0.0,0.0,0.0,0.0,0
76f897717d325b35,1551763495773,798,-6657.0,-8193.0,10495.0,0.0,0.0,0.0,0.0,0.0,0.0,0
76f897717d325b35,1551763495774,799,-6657.0,-8193.0,10495.0,0.0,0.0,0.0,0.0,0.0,0.0,0
76f897717d325b35,1551763495835,800,-6657.0,-8193.0,10495.0,0.0,0.0,0.0,0.0,0.0,0.0,0
76f897717d325b35,1551763495894,801,-6657.0,-8193.0,10495.0,0.0,0.0,0.0,0.0,0.0,0.0,0
76f897717d325b35,1551763495984,802,-6657.0,-8193.0,10495.0,0.0,0.0,0.0,0.0,0.0,0.0,0
76f897717d325b35,1551763496103,803,-6657.0,-8193.0,10495.0,0.0,0.0,0.0,0.0,0.0,0.0,0
76f897717d325b35,1551763496105,804,-6657.0,-8193.0,10495.0,0.0,0.0,0.0,0.0,0.0,0.0,0
76f897717d325b35,1551763496164,805,-6657.0,-8193.0,10495.0,0.0,0.0,0.0,0.0,0.0,0.0,0
76f897717d325b35,1551763496254,806,-6657.0,-8193.0,10495.0,0.0,0.0,0.0,0.0,0.0,0.0,0
76f897717d325b35,1551763496284,807,-6657.0,-8193.0,10495.0,0.0,0.0,0.0,0.0,0.0,0.0,0
76f897717d325b35,1551763496374,808,-6657.0,-8193.0,10495.0,0.0,0.0,0.0,0.0,0.0,0.0,0
76f897717d325b35,1551763496434,809,-6657.0,-8193.0,10495.0,0.0,0.0,0.0,0.0,0.0,0.0,0
76f897717d325b35,1551763496494,810,-6657.0,-8193.0,10495.0,0.0,0.0,0.0,0.0,0.0,0.0,0
76f897717d325b35,1551763496554,811,-6657.0,-8193.0,10495.0,0.0,0.0,0.0,0.0,0.0,0.0,0
76f897717d325b35,1551763496644,812,-6657.0,-8193.0,10495.0,0.0,0.0,0.0,0.0,0.0,0.0,0
76f897717d325b35,1551763496704,813,-6657.0,-8193.0,10495.0,0.0,0.0,0.0,0.0,0.0,0.0,0
76f897717d325b35,1551763496764,814,-6657.0,-8193.0,10495.0,0.0,0.0,0.0,0.0,0.0,0.0,0
76f897717d325b35,1551763496854,815,-6657.0,-8193.0,10495.0,0.0,0.0,0.0,0.0,0.0,0.0,0
76f897717d325b35,1551763496884,816,-6657.0,-8193.0,10495.0,0.0,0.0,0.0,0.0,0.0,0.0,0
76f897717d325b35,1551763496944,817,-6657.0,-8193.0,10495.0,0.0,0.0,0.0,0.0,0.0,0.0,0
76f897717d325b35,1551763497034,818,-6657.0,-8193.0,10495.0,0.0,0.0,0.0,0.0,0.0,0.0,0
76f897717d325b35,1551763497094,819,-6657.0,-8193.0,10495.0,0.0,0.0,0.0,0.0,0.0,0.0,0
76f897717d325b35,1551763497154,820,-6657.0,-8193.0,10495.0,0.0,0.0,0.0,0.0,0.0,0.0,0
76f897717d325b35,1551763497214,821,-6657.0,-8193.0,10495.0,0.0,0.0,0.0,0.0,0.0,0.0,0
76f897717d325b35,1551763497274,822,-6657.0,-8193.0,10495.0,0.0,0.0,0.0,0.0,0.0,0.0,0
76f897717d325b35,1551763497364,823,-6657.0,-8193.0,10495.0,0.0,0.0,0.0,0.0,0.0,0.0,0
76f897717d325b35,1551763497454,824,-6657.0,-8193.0,10495.0,0.0,0.0,0.0,0.0,0.0,0.0,0
76f897717d325b35,1551763497484,825,-6657.0,-8193.0,10495.0,0.0,0.0,0.0,0.0,0.0,0.0,0
76f897717d325b35,1551763497544,826,-6657.0,-8193.0,10495.0,0.0,0.0,0.0,0.0,0.0,0.0,0
76f897717d325b35,1551763497604,827,-6657.0,-8193.0,10495.0,0.0,0.0,0.0,0.0,0.0,0.0,0
76f897717d325b35,1551763497694,828,-6657.0,-8193.0,10495.0,0.0,0.0,0.0,0.0,0.0,0.0,0
76f897717d325b35,1551763497754,829,-6657.0,-8193.0,10495.0,0.0,0.0,0.0,0.0,0.0,0.0,0
76f897717d325b35,1551763497814,830,-6657.0,-8193.0,10495.0,0.0,0.0,0.0,0.0,0.0,0.0,0
76f897717d325b35,1551763497904,831,-6657.0,-8193.0,10495.0,0.0,0.0,0.0,0.0,0.0,0.0,0
76f897717d325b35,1551763497964,832,-6657.0,-8193.0,10495.0,0.0,0.0,0.0,0.0,0.0,0.0,0
76f897717d325b35,1551763498024,833,-6657.0,-8193.0,10495.0,0.0,0.0,0.0,0.0,0.0,0.0,0
76f897717d325b35,1551763498114,834,-6657.0,-8193.0,10495.0,0.0,0.0,0.0,0.0,0.0,0.0,0
76f897717d325b35,1551763498174,835,-6657.0,-8193.0,10495.0,0.0,0.0,0.0,0.0,0.0,0.0,0
76f897717d325b35,1551763498204,836,-6657.0,-8193.0,10495.0,0.0,0.0,0.0,0.0,0.0,0.0,0
76f897717d325b35,1551763498263,837,-6657.0,-8193.0,10495.0,0.0,0.0,0.0,0.0,0.0,0.0,0
76f897717d325b35,1551763498384,838,-6657.0,-8193.0,10495.0,0.0,0.0,0.0,0.0,0.0,0.0,0
76f897717d325b35,1551763498414,839,-6657.0,-8193.0,10495.0,0.0,0.0,0.0,0.0,0.0,0.0,0
76f897717d325b35,1551763498504,840,-6657.0,-8193.0,10495.0,0.0,0.0,0.0,0.0,0.0,0.0,0
76f897717d325b35,1551763498593,841,-6657.0,-8193.0,10495.0,0.0,0.0,0.0,0.0,0.0,0.0,0
76f897717d325b35,1551763498595,842,-6657.0,-8193.0,10495.0,0.0,0.0,0.0,0.0,0.0,0.0,0
76f897717d325b35,1551763498714,843,-6657.0,-8193.0,10495.0,0.0,0.0,0.0,0.0,0.0,0.0,0
76f897717d325b35,1551763498773,844,-6657.0,-8193.0,10495.0,0.0,0.0,0.0,0.0,0.0,0.0,0
76f897717d325b35,1551763498834,845,-6657.0,-8193.0,10495.0,0.0,0.0,0.0,0.0,0.0,0.0,0
76f897717d325b35,1551763498923,846,-6657.0,-8193.0,10495.0,0.0,0.0,0.0,0.0,0.0,0.0,0
76f897717d325b35,1551763498925,847,-6657.0,-8193.0,10495.0,0.0,0.0,0.0,0.0,0.0,0.0,0
76f897717d325b35,1551763499014,848,-6657.0,-8193.0,10495.0,0.0,0.0,0.0,0.0,0.0,0.0,0
76f897717d325b35,1551763499133,849,-6657.0,-8193.0,10495.0,0.0,0.0,0.0,0.0,0.0,0.0,0
76f897717d325b35,1551763499135,850,-6657.0,-8193.0,10495.0,0.0,0.0,0.0,0.0,0.0,0.0,0
76f897717d325b35,1551763499224,851,-6657.0,-8193.0,10495.0,0.0,0.0,0.0,0.0,0.0,0.0,0
76f897717d325b35,1551763499314,852,-6657.0,-8193.0,10495.0,0.0,0.0,0.0,0.0,0.0,0.0,0
76f897717d325b35,1551763499344,853,-6657.0,-8193.0,10495.0,0.0,0.0,0.0,0.0,0.0,0.0,0
76f897717d325b35,1551763499404,854,-6657.0,-8193.0,10495.0,0.0,0.0,0.0,0.0,0.0,0.0,0
76f897717d325b35,1551763499463,855,-6657.0,-8193.0,10495.0,0.0,0.0,0.0,0.0,0.0,0.0,0
76f897717d325b35,1551763499554,856,-6657.0,-8193.0,10495.0,0.0,0.0,0.0,0.0,0.0,0.0,0
76f897717d325b35,1551763499584,857,-6657.0,-8193.0,10495.0,0.0,0.0,0.0,0.0,0.0,0.0,0
76f897717d325b35,1551763499674,858,-6657.0,-8193.0,10495.0,0.0,0.0,0.0,0.0,0.0,0.0,0
76f897717d325b35,1551763499734,859,-6657.0,-8193.0,10495.0,0.0,0.0,0.0,0.0,0.0,0.0,0
76f897717d325b35,1551763499824,860,-6657.0,-8193.0,10495.0,0.0,0.0,0.0,0.0,0.0,0.0,0
76f897717d325b35,1551763499973,861,-6657.0,-8193.0,10495.0,0.0,0.0,0.0,0.0,0.0,0.0,0
76f897717d325b35,1551763499975,862,-6657.0,-8193.0,10495.0,0.0,0.0,0.0,0.0,0.0,0.0,0
76f897717d325b35,1551763500034,863,-6657.0,-8193.0,10495.0,0.0,0.0,0.0,0.0,0.0,0.0,0
76f897717d325b35,1551763500094,864,-6657.0,-8193.0,10495.0,0.0,0.0,0.0,0.0,0.0,0.0,0
76f897717d325b35,1551763500124,865,-6657.0,-8193.0,10495.0,0.0,0.0,0.0,0.0,0.0,0.0,0
76f897717d325b35,1551763500184,866,-6657.0,-8193.0,10495.0,0.0,0.0,0.0,0.0,0.0,0.0,0
76f897717d325b35,1551763500244,867,-6657.0,-8193.0,10495.0,0.0,0.0,0.0,0.0,0.0,0.0,0
76f897717d325b35,1551763500334,868,-6657.0,-8193.0,10495.0,0.0,0.0,0.0,0.0,0.0,0.0,0
76f897717d325b35,1551763500394,869,-6657.0,-8193.0,10495.0,0.0,0.0,0.0,0.0,0.0,0.0,0
76f897717d325b35,1551763500454,870,-6657.0,-8193.0,10495.0,0.0,0.0,0.0,0.0,0.0,0.0,0
76f897717d325b35,1551763500514,871,-6657.0,-8193.0,10495.0,0.0,0.0,0.0,0.0,0.0,0.0,0
76f897717d325b35,1551763500574,872,-6657.0,-8193.0,10495.0,0.0,0.0,0.0,0.0,0.0,0.0,0
76f897717d325b35,1551763500663,873,-6657.0,-8193.0,10495.0,0.0,0.0,0.0,0.0,0.0,0.0,0
76f897717d325b35,1551763500754,874,-6657.0,-8193.0,10495.0,0.0,0.0,0.0,0.0,0.0,0.0,0
76f897717d325b35,1551763500784,875,-6657.0,-8193.0,10495.0,0.0,0.0,0.0,0.0,0.0,0.0,0
76f897717d325b35,1551763500844,876,-6657.0,-8193.0,10495.0,0.0,0.0,0.0,0.0,0.0,0.0,0
76f897717d325b35,1551763500934,877,-6657.0,-8193.0,10495.0,0.0,0.0,0.0,0.0,0.0,0.0,0
76f897717d325b35,1551763500994,878,-6657.0,-8193.0,10495.0,0.0,0.0,0.0,0.0,0.0,0.0,0
76f897717d325b35,1551763501054,879,-6657.0,-8193.0,10495.0,0.0,0.0,0.0,0.0,0.0,0.0,0
76f897717d325b35,1551763501144,880,-6657.0,-8193.0,10495.0,0.0,0.0,0.0,0.0,0.0,0.0,0
76f897717d325b35,1551763501174,881,-6657.0,-8193.0,10495.0,0.0,0.0,0.0,0.0,0.0,0.0,0
76f897717d325b35,1551763501234,882,-6657.0,-8193.0,10495.0,0.0,0.0,0.0,0.0,0.0,0.0,0
76f897717d325b35,1551763501354,883,-6657.0,-8193.0,10495.0,0.0,0.0,0.0,0.0,0.0,0.0,0
76f897717d325b35,1551763501384,884,-6657.0,-8193.0,10495.0,0.0,0.0,0.0,0.0,0.0,0.0,0
76f897717d325b35,1551763501444,885,-6657.0,-8193.0,10495.0,0.0,0.0,0.0,0.0,0.0,0.0,0
76f897717d325b35,1551763501504,886,-6657.0,-8193.0,10495.0,0.0,0.0,0.0,0.0,0.0,0.0,0
76f897717d325b35,1551763501564,887,-6657.0,-8193.0,10495.0,0.0,0.0,0.0,0.0,0.0,0.0,0
76f897717d325b35,1551763501654,888,-6657.0,-8193.0,10495.0,0.0,0.0,0.0,0.0,0.0,0.0,0
76f897717d325b35,1551763501744,889,-6657.0,-8193.0,10495.0,0.0,0.0,0.0,0.0,0.0,0.0,0
76f897717d325b35,1551763501803,890,-6657.0,-8193.0,10495.0,0.0,0.0,0.0,0.0,0.0,0.0,0
76f897717d325b35,1551763501864,891,-6657.0,-8193.0,10495.0,0.0,0.0,0.0,0.0,0.0,0.0,0
76f897717d325b35,1551763501894,892,-6657.0,-8193.0,10495.0,0.0,0.0,0.0,0.0,0.0,0.0,0
76f897717d325b35,1551763501984,893,-6657.0,-8193.0,10495.0,0.0,0.0,0.0,0.0,0.0,0.0,0
76f897717d325b35,1551763502044,894,-6657.0,-8193.0,10495.0,0.0,0.0,0.0,0.0,0.0,0.0,0
76f897717d325b35,1551763502104,895,-6657.0,-8193.0,10495.0,0.0,0.0,0.0,0.0,0.0,0.0,0
76f897717d325b35,1551763502163,896,-6657.0,-8193.0,10495.0,0.0,0.0,0.0,0.0,0.0,0.0,0
76f897717d325b35,1551763502224,897,-6657.0,-8193.0,10495.0,0.0,0.0,0.0,0.0,0.0,0.0,0
76f897717d325b35,1551763502314,898,-6657.0,-8193.0,10495.0,0.0,0.0,0.0,0.0,0.0,0.0,0
76f897717d325b35,1551763502374,899,-6657.0,-8193.0,10495.0,0.0,0.0,0.0,0.0,0.0,0.0,0
76f897717d325b35,1551763502434,900,-6657.0,-8193.0,10495.0,0.0,0.0,0.0,0.0,0.0,0.0,0
76f897717d325b35,1551763502494,901,-6657.0,-8193.0,10495.0,0.0,0.0,0.0,0.0,0.0,0.0,0
76f897717d325b35,1551763502554,902,-6657.0,-8193.0,10495.0,0.0,0.0,0.0,0.0,0.0,0.0,0
76f897717d325b35,1551763502644,903,-6657.0,-8193.0,10495.0,0.0,0.0,0.0,0.0,0.0,0.0,0
76f897717d325b35,1551763502704,904,-6657.0,-8193.0,10495.0,0.0,0.0,0.0,0.0,0.0,0.0,0
76f897717d325b35,1551763502764,905,-6657.0,-8193.0,10495.0,0.0,0.0,0.0,0.0,0.0,0.0,0
76f897717d325b35,1551763502824,906,-6657.0,-8193.0,10495.0,0.0,0.0,0.0,0.0,0.0,0.0,0
76f897717d325b35,1551763503033,907,-6657.0,-8193.0,10495.0,0.0,0.0,0.0,0.0,0.0,0.0,0
76f897717d325b35,1551763503035,908,-6657.0,-8193.0,10495.0,0.0,0.0,0.0,0.0,0.0,0.0,0
76f897717d325b35,1551763503036,909,-6657.0,-8193.0,10495.0,0.0,0.0,0.0,0.0,0.0,0.0,0
76f897717d325b35,1551763503094,910,-6657.0,-8193.0,10495.0,0.0,0.0,0.0,0.0,0.0,0.0,0
76f897717d325b35,1551763503154,911,-6657.0,-8193.0,10495.0,0.0,0.0,0.0,0.0,0.0,0.0,0
76f897717d325b35,1551763503244,912,-6657.0,-8193.0,10495.0,0.0,0.0,0.0,0.0,0.0,0.0,0
76f897717d325b35,1551763503304,913,-6657.0,-8193.0,10495.0,0.0,0.0,0.0,0.0,0.0,0.0,0
76f897717d325b35,1551763503363,914,-6657.0,-8193.0,10495.0,0.0,0.0,0.0,0.0,0.0,0.0,0
76f897717d325b35,1551763503454,915,-6657.0,-8193.0,10495.0,0.0,0.0,0.0,0.0,0.0,0.0,0
76f897717d325b35,1551763503483,916,-6657.0,-8193.0,10495.0,0.0,0.0,0.0,0.0,0.0,0.0,0
76f897717d325b35,1551763503544,917,-6657.0,-8193.0,10495.0,0.0,0.0,0.0,0.0,0.0,0.0,0
76f897717d325b35,1551763503663,918,-6657.0,-8193.0,10495.0,0.0,0.0,0.0,0.0,0.0,0.0,0
76f897717d325b35,1551763503694,919,-6657.0,-8193.0,10495.0,0.0,0.0,0.0,0.0,0.0,0.0,0
76f897717d325b35,1551763503754,920,-6657.0,-8193.0,10495.0,0.0,0.0,0.0,0.0,0.0,0.0,0
76f897717d325b35,1551763503814,921,-6657.0,-8193.0,10495.0,0.0,0.0,0.0,0.0,0.0,0.0,0
76f897717d325b35,1551763503874,922,-6657.0,-8193.0,10495.0,0.0,0.0,0.0,0.0,0.0,0.0,0
76f897717d325b35,1551763503963,923,-6657.0,-8193.0,10495.0,0.0,0.0,0.0,0.0,0.0,0.0,0
76f897717d325b35,1551763504024,924,-6657.0,-8193.0,10495.0,0.0,0.0,0.0,0.0,0.0,0.0,0
76f897717d325b35,1551763504114,925,-6657.0,-8193.0,10495.0,0.0,0.0,0.0,0.0,0.0,0.0,0
76f897717d325b35,1551763504144,926,-6657.0,-8193.0,10495.0,0.0,0.0,0.0,0.0,0.0,0.0,0
76f897717d325b35,1551763504204,927,-6657.0,-8193.0,10495.0,0.0,0.0,0.0,0.0,0.0,0.0,0
76f897717d325b35,1551763504294,928,-6657.0,-8193.0,10495.0,0.0,0.0,0.0,0.0,0.0,0.0,0
76f897717d325b35,1551763504354,929,-6657.0,-8193.0,10495.0,0.0,0.0,0.0,0.0,0.0,0.0,0
76f897717d325b35,1551763504444,930,-6657.0,-8193.0,10495.0,0.0,0.0,0.0,0.0,0.0,0.0,0
76f897717d325b35,1551763504474,931,-6657.0,-8193.0,10495.0,0.0,0.0,0.0,0.0,0.0,0.0,0
76f897717d325b35,1551763504534,932,-6657.0,-8193.0,10495.0,0.0,0.0,0.0,0.0,0.0,0.0,0
76f897717d325b35,1551763504654,933,-6657.0,-8193.0,10495.0,0.0,0.0,0.0,0.0,0.0,0.0,0
76f897717d325b35,1551763504684,934,-6657.0,-8193.0,10495.0,0.0,0.0,0.0,0.0,0.0,0.0,0
76f897717d325b35,1551763504744,935,-6657.0,-8193.0,10495.0,0.0,0.0,0.0,0.0,0.0,0.0,0
76f897717d325b35,1551763504804,936,-6657.0,-8193.0,10495.0,0.0,0.0,0.0,0.0,0.0,0.0,0
76f897717d325b35,1551763504863,937,-6657.0,-8193.0,10495.0,0.0,0.0,0.0,0.0,0.0,0.0,0
76f897717d325b35,1551763504954,938,-6657.0,-8193.0,10495.0,0.0,0.0,0.0,0.0,0.0,0.0,0
76f897717d325b35,1551763505073,939,-6657.0,-8193.0,10495.0,0.0,0.0,0.0,0.0,0.0,0.0,0
76f897717d325b35,1551763505075,940,-6657.0,-8193.0,10495.0,0.0,0.0,0.0,0.0,0.0,0.0,0
76f897717d325b35,1551763505134,941,-6657.0,-8193.0,10495.0,0.0,0.0,0.0,0.0,0.0,0.0,0
76f897717d325b35,1551763505224,942,-6657.0,-8193.0,10495.0,0.0,0.0,0.0,0.0,0.0,0.0,0
76f897717d325b35,1551763505284,943,-6657.0,-8193.0,10495.0,0.0,0.0,0.0,0.0,0.0,0.0,0
76f897717d325b35,1551763505344,944,-6657.0,-8193.0,10495.0,0.0,0.0,0.0,0.0,0.0,0.0,0
76f897717d325b35,1551763505433,945,-6657.0,-8193.0,10495.0,0.0,0.0,0.0,0.0,0.0,0.0,0
76f897717d325b35,1551763505463,946,-6657.0,-8193.0,10495.0,0.0,0.0,0.0,0.0,0.0,0.0,0
76f897717d325b35,1551763505584,947,-6657.0,-8193.0,10495.0,0.0,0.0,0.0,0.0,0.0,0.0,0
76f897717d325b35,1551763505614,948,-6657.0,-8193.0,10495.0,0.0,0.0,0.0,0.0,0.0,0.0,0
76f897717d325b35,1551763505674,949,-6657.0,-8193.0,10495.0,0.0,0.0,0.0,0.0,0.0,0.0,0
76f897717d325b35,1551763505763,950,-6657.0,-8193.0,10495.0,0.0,0.0,0.0,0.0,0.0,0.0,0
76f897717d325b35,1551763505794,951,-6657.0,-8193.0,10495.0,0.0,0.0,0.0,0.0,0.0,0.0,0
76f897717d325b35,1551763505884,952,-6657.0,-8193.0,10495.0,0.0,0.0,0.0,0.0,0.0,0.0,0
76f897717d325b35,1551763505944,953,-6657.0,-8193.0,10495.0,0.0,0.0,0.0,0.0,0.0,0.0,0
76f897717d325b35,1551763506004,954,-6657.0,-8193.0,10495.0,0.0,0.0,0.0,0.0,0.0,0.0,0
76f897717d325b35,1551763506063,955,-6657.0,-8193.0,10495.0,0.0,0.0,0.0,0.0,0.0,0.0,0
76f897717d325b35,1551763506124,956,-6657.0,-8193.0,10495.0,0.0,0.0,0.0,0.0,0.0,0.0,0
76f897717d325b35,1551763506184,957,-6657.0,-8193.0,10495.0,0.0,0.0,0.0,0.0,0.0,0.0,0
76f897717d325b35,1551763506274,958,-6657.0,-8193.0,10495.0,0.0,0.0,0.0,0.0,0.0,0.0,0
76f897717d325b35,1551763506334,959,-6657.0,-8193.0,10495.0,0.0,0.0,0.0,0.0,0.0,0.0,0
76f897717d325b35,1551763506394,960,-6657.0,-8193.0,10495.0,0.0,0.0,0.0,0.0,0.0,0.0,0
76f897717d325b35,1551763506454,961,-6657.0,-8193.0,10495.0,0.0,0.0,0.0,0.0,0.0,0.0,0
76f897717d325b35,1551763506514,962,-6657.0,-8193.0,10495.0,0.0,0.0,0.0,0.0,0.0,0.0,0
76f897717d325b35,1551763506604,963,-6657.0,-8193.0,10495.0,0.0,0.0,0.0,0.0,0.0,0.0,0
76f897717d325b35,1551763506663,964,-6657.0,-8193.0,10495.0,0.0,0.0,0.0,0.0,0.0,0.0,0
76f897717d325b35,1551763506724,965,-6657.0,-8193.0,10495.0,0.0,0.0,0.0,0.0,0.0,0.0,0
76f897717d325b35,1551763506814,966,-6657.0,-8193.0,10495.0,0.0,0.0,0.0,0.0,0.0,0.0,0
76f897717d325b35,1551763506843,967,-6657.0,-8193.0,10495.0,0.0,0.0,0.0,0.0,0.0,0.0,0
76f897717d325b35,1551763506934,968,-6657.0,-8193.0,10495.0,0.0,0.0,0.0,0.0,0.0,0.0,0
76f897717d325b35,1551763506994,969,-6657.0,-8193.0,10495.0,0.0,0.0,0.0,0.0,0.0,0.0,0
76f897717d325b35,1551763507054,970,-6657.0,-8193.0,10495.0,0.0,0.0,0.0,0.0,0.0,0.0,0
76f897717d325b35,1551763507114,971,-6657.0,-8193.0,10495.0,0.0,0.0,0.0,0.0,0.0,0.0,0
76f897717d325b35,1551763507204,972,-6657.0,-8193.0,10495.0,0.0,0.0,0.0,0.0,0.0,0.0,0
76f897717d325b35,1551763507294,973,-6657.0,-8193.0,10495.0,0.0,0.0,0.0,0.0,0.0,0.0,0
76f897717d325b35,1551763507324,974,-6657.0,-8193.0,10495.0,0.0,0.0,0.0,0.0,0.0,0.0,0
76f897717d325b35,1551763507384,975,-6657.0,-8193.0,10495.0,0.0,0.0,0.0,0.0,0.0,0.0,0
76f897717d325b35,1551763507444,976,-6657.0,-8193.0,10495.0,0.0,0.0,0.0,0.0,0.0,0.0,0
76f897717d325b35,1551763507504,977,-6657.0,-8193.0,10495.0,0.0,0.0,0.0,0.0,0.0,0.0,0
76f897717d325b35,1551763507594,978,-6657.0,-8193.0,10495.0,0.0,0.0,0.0,0.0,0.0,0.0,0
76f897717d325b35,1551763507684,979,-6657.0,-8193.0,10495.0,0.0,0.0,0.0,0.0,0.0,0.0,0
76f897717d325b35,1551763507714,980,-6657.0,-8193.0,10495.0,0.0,0.0,0.0,0.0,0.0,0.0,0
76f897717d325b35,1551763507803,981,-6657.0,-8193.0,10495.0,0.0,0.0,0.0,0.0,0.0,0.0,0
76f897717d325b35,1551763507894,982,-6657.0,-8193.0,10495.0,0.0,0.0,0.0,0.0,0.0,0.0,0
76f897717d325b35,1551763507924,983,-6657.0,-8193.0,10495.0,0.0,0.0,0.0,0.0,0.0,0.0,0
76f897717d325b35,1551763508014,984,-6657.0,-8193.0,10495.0,0.0,0.0,0.0,0.0,0.0,0.0,0
76f897717d325b35,1551763508043,985,-6913.0,-8193.0,10495.0,0.0,0.0,0.0,0.0,0.0,0.0,0
76f897717d325b35,1551763508104,986,-6657.0,-8193.0,10495.0,0.0,0.0,0.0,0.0,0.0,0.0,0
76f897717d325b35,1551763508194,987,-6657.0,-8193.0,10495.0,0.0,0.0,0.0,0.0,0.0,0.0,0
76f897717d325b35,1551763508254,988,-6913.0,-8193.0,10495.0,0.0,0.0,0.0,0.0,0.0,0.0,0
76f897717d325b35,1551763508344,989,-6657.0,-8193.0,10495.0,0.0,0.0,0.0,0.0,0.0,0.0,0
76f897717d325b35,1551763508433,990,-6657.0,-8193.0,10495.0,0.0,0.0,0.0,0.0,0.0,0.0,0
76f897717d325b35,1551763508435,991,-6657.0,-8193.0,10495.0,0.0,0.0,0.0,0.0,0.0,0.0,0
76f897717d325b35,1551763508524,992,-6657.0,-8193.0,10495.0,0.0,0.0,0.0,0.0,0.0,0.0,0
76f897717d325b35,1551763508584,993,-6657.0,-8193.0,10495.0,0.0,0.0,0.0,0.0,0.0,0.0,0
76f897717d325b35,1551763508644,994,-6657.0,-8193.0,10495.0,0.0,0.0,0.0,0.0,0.0,0.0,0
76f897717d325b35,1551763508704,995,-6657.0,-8193.0,10495.0,0.0,0.0,0.0,0.0,0.0,0.0,0
76f897717d325b35,1551763508763,996,-6657.0,-8193.0,10495.0,0.0,0.0,0.0,0.0,0.0,0.0,0
76f897717d325b35,1551763508854,997,-6657.0,-8193.0,10495.0,0.0,0.0,0.0,0.0,0.0,0.0,0
76f897717d325b35,1551763508914,998,-6657.0,-8193.0,10495.0,0.0,0.0,0.0,0.0,0.0,0.0,0
76f897717d325b35,1551763508974,999,-6657.0,-8193.0,10495.0,0.0,0.0,0.0,0.0,0.0,0.0,0
76f897717d325b35,1551763509034,1000,-6657.0,-8193.0,10495.0,0.0,0.0,0.0,0.0,0.0,0.0,0
76f897717d325b35,1551763509094,1001,-6657.0,-8193.0,10495.0,0.0,0.0,0.0,0.0,0.0,0.0,0
76f897717d325b35,1551763509183,1002,-6657.0,-8193.0,10495.0,0.0,0.0,0.0,0.0,0.0,0.0,0
76f897717d325b35,1551763509274,1003,-6657.0,-8193.0,10495.0,0.0,0.0,0.0,0.0,0.0,0.0,0
76f897717d325b35,1551763509303,1004,-6657.0,-8193.0,10495.0,0.0,0.0,0.0,0.0,0.0,0.0,0
76f897717d325b35,1551763509363,1005,-6657.0,-8193.0,10495.0,0.0,0.0,0.0,0.0,0.0,0.0,0
76f897717d325b35,1551763509424,1006,-6657.0,-8193.0,10495.0,0.0,0.0,0.0,0.0,0.0,0.0,0
76f897717d325b35,1551763509603,1007,-6657.0,-8193.0,10495.0,0.0,0.0,0.0,0.0,0.0,0.0,0
76f897717d325b35,1551763509604,1008,-6657.0,-8193.0,10495.0,0.0,0.0,0.0,0.0,0.0,0.0,0
76f897717d325b35,1551763509634,1009,-6657.0,-8193.0,10495.0,0.0,0.0,0.0,0.0,0.0,0.0,0
76f897717d325b35,1551763509694,1010,-6657.0,-8193.0,10495.0,0.0,0.0,0.0,0.0,0.0,0.0,0
76f897717d325b35,1551763509754,1011,-6657.0,-8193.0,10495.0,0.0,0.0,0.0,0.0,0.0,0.0,0
76f897717d325b35,1551763509844,1012,-6657.0,-8193.0,10495.0,0.0,0.0,0.0,0.0,0.0,0.0,0
76f897717d325b35,1551763509904,1013,-6657.0,-8193.0,10495.0,0.0,0.0,0.0,0.0,0.0,0.0,0
76f897717d325b35,1551763509963,1014,-6657.0,-8193.0,10495.0,0.0,0.0,0.0,0.0,0.0,0.0,0
76f897717d325b35,1551763510024,1015,-6657.0,-8193.0,10495.0,0.0,0.0,0.0,0.0,0.0,0.0,0
76f897717d325b35,1551763510084,1016,-6657.0,-8193.0,10495.0,0.0,0.0,0.0,0.0,0.0,0.0,0
76f897717d325b35,1551763510173,1017,-6657.0,-8193.0,10495.0,0.0,0.0,0.0,0.0,0.0,0.0,0
76f897717d325b35,1551763510234,1018,-6657.0,-8193.0,10495.0,0.0,0.0,0.0,0.0,0.0,0.0,0
76f897717d325b35,1551763510294,1019,-6657.0,-8193.0,10495.0,0.0,0.0,0.0,0.0,0.0,0.0,0
76f897717d325b35,1551763510354,1020,-6657.0,-8193.0,10495.0,0.0,0.0,0.0,0.0,0.0,0.0,0
76f897717d325b35,1551763510414,1021,-6657.0,-8193.0,10495.0,0.0,0.0,0.0,0.0,0.0,0.0,0
76f897717d325b35,1551763510504,1022,-6657.0,-8193.0,10495.0,0.0,0.0,0.0,0.0,0.0,0.0,0
76f897717d325b35,1551763510563,1023,-6657.0,-8193.0,10495.0,0.0,0.0,0.0,0.0,0.0,0.0,0
76f897717d325b35,1551763510654,1024,-6657.0,-8193.0,10495.0,0.0,0.0,0.0,0.0,0.0,0.0,0
76f897717d325b35,1551763510683,1025,-6657.0,-8193.0,10495.0,0.0,0.0,0.0,0.0,0.0,0.0,0
76f897717d325b35,1551763510744,1026,-6657.0,-8193.0,10495.0,0.0,0.0,0.0,0.0,0.0,0.0,0
76f897717d325b35,1551763510863,1027,-6657.0,-8193.0,10495.0,0.0,0.0,0.0,0.0,0.0,0.0,0
76f897717d325b35,1551763510894,1028,-6657.0,-8193.0,10495.0,0.0,0.0,0.0,0.0,0.0,0.0,0
76f897717d325b35,1551763510984,1029,-6657.0,-8193.0,10495.0,0.0,0.0,0.0,0.0,0.0,0.0,0
76f897717d325b35,1551763511014,1030,-6657.0,-8193.0,10495.0,0.0,0.0,0.0,0.0,0.0,0.0,0
76f897717d325b35,1551763511074,1031,-6657.0,-8193.0,10495.0,0.0,0.0,0.0,0.0,0.0,0.0,0
76f897717d325b35,1551763511163,1032,-6657.0,-8193.0,10495.0,0.0,0.0,0.0,0.0,0.0,0.0,0
76f897717d325b35,1551763511224,1033,-6657.0,-8193.0,10495.0,0.0,0.0,0.0,0.0,0.0,0.0,0
76f897717d325b35,1551763511313,1034,-6657.0,-8193.0,10495.0,0.0,0.0,0.0,0.0,0.0,0.0,0
76f897717d325b35,1551763511523,1035,-6657.0,-8193.0,10495.0,0.0,0.0,0.0,0.0,0.0,0.0,0
76f897717d325b35,1551763511524,1036,-6657.0,-8193.0,10495.0,0.0,0.0,0.0,0.0,0.0,0.0,0
76f897717d325b35,1551763511525,1037,-6657.0,-8193.0,10495.0,0.0,0.0,0.0,0.0,0.0,0.0,0
76f897717d325b35,1551763511584,1038,-6657.0,-8193.0,10495.0,0.0,0.0,0.0,0.0,0.0,0.0,0
76f897717d325b35,1551763511614,1039,-6657.0,-8193.0,10495.0,0.0,0.0,0.0,0.0,0.0,0.0,0
76f897717d325b35,1551763511733,1040,-6657.0,-8193.0,10495.0,0.0,0.0,0.0,0.0,0.0,0.0,0
76f897717d325b35,1551763511734,1041,-6657.0,-8193.0,10495.0,0.0,0.0,0.0,0.0,0.0,0.0,0
76f897717d325b35,1551763511824,1042,-6657.0,-8193.0,10495.0,0.0,0.0,0.0,0.0,0.0,0.0,0
76f897717d325b35,1551763511884,1043,-6657.0,-8193.0,10495.0,0.0,0.0,0.0,0.0,0.0,0.0,0
76f897717d325b35,1551763511944,1044,-6657.0,-8193.0,10495.0,0.0,0.0,0.0,0.0,0.0,0.0,0
76f897717d325b35,1551763512004,1045,-6657.0,-8193.0,10495.0,0.0,0.0,0.0,0.0,0.0,0.0,0
76f897717d325b35,1551763512124,1046,-6657.0,-8193.0,10495.0,0.0,0.0,0.0,0.0,0.0,0.0,0
76f897717d325b35,1551763512213,1047,-6657.0,-8193.0,10495.0,0.0,0.0,0.0,0.0,0.0,0.0,0
76f897717d325b35,1551763512214,1048,-6657.0,-8193.0,10495.0,0.0,0.0,0.0,0.0,0.0,0.0,0
76f897717d325b35,1551763512274,1049,-6657.0,-8193.0,10495.0,0.0,0.0,0.0,0.0,0.0,0.0,0
76f897717d325b35,1551763512334,1050,-6657.0,-8193.0,10495.0,0.0,0.0,0.0,0.0,0.0,0.0,0
76f897717d325b35,1551763512423,1051,-6657.0,-8193.0,10495.0,0.0,0.0,0.0,0.0,0.0,0.0,0
76f897717d325b35,1551763512543,1052,-6657.0,-8193.0,10495.0,0.0,0.0,0.0,0.0,0.0,0.0,0
76f897717d325b35,1551763512544,1053,-6657.0,-8193.0,10495.0,0.0,0.0,0.0,0.0,0.0,0.0,0
76f897717d325b35,1551763512604,1054,-6657.0,-8193.0,10495.0,0.0,0.0,0.0,0.0,0.0,0.0,0
76f897717d325b35,1551763512663,1055,-6657.0,-8193.0,10495.0,0.0,0.0,0.0,0.0,0.0,0.0,0
76f897717d325b35,1551763512724,1056,-6657.0,-8193.0,10495.0,0.0,0.0,0.0,0.0,0.0,0.0,0
76f897717d325b35,1551763512903,1057,-6657.0,-8193.0,10495.0,0.0,0.0,0.0,0.0,0.0,0.0,0
76f897717d325b35,1551763512904,1058,-6657.0,-8193.0,10495.0,0.0,0.0,0.0,0.0,0.0,0.0,0
76f897717d325b35,1551763512933,1059,-6657.0,-8193.0,10495.0,0.0,0.0,0.0,0.0,0.0,0.0,0
76f897717d325b35,1551763513053,1060,-6657.0,-8193.0,10495.0,0.0,0.0,0.0,0.0,0.0,0.0,0
76f897717d325b35,1551763513054,1061,-6657.0,-8193.0,10495.0,0.0,0.0,0.0,0.0,0.0,0.0,0
76f897717d325b35,1551763513144,1062,-6657.0,-8193.0,10495.0,0.0,0.0,0.0,0.0,0.0,0.0,0
76f897717d325b35,1551763513234,1063,-6657.0,-8193.0,10495.0,0.0,0.0,0.0,0.0,0.0,0.0,0
76f897717d325b35,1551763513263,1064,-6657.0,-8193.0,10495.0,0.0,0.0,0.0,0.0,0.0,0.0,0
76f897717d325b35,1551763513354,1065,-6657.0,-8193.0,10495.0,0.0,0.0,0.0,0.0,0.0,0.0,0
76f897717d325b35,1551763513414,1066,-6657.0,-8193.0,10495.0,0.0,0.0,0.0,0.0,0.0,0.0,0
76f897717d325b35,1551763513593,1067,-6657.0,-8193.0,10495.0,0.0,0.0,0.0,0.0,0.0,0.0,0
76f897717d325b35,1551763513594,1068,-6657.0,-8193.0,10495.0,0.0,0.0,0.0,0.0,0.0,0.0,0
76f897717d325b35,1551763513653,1069,-6657.0,-8193.0,10495.0,0.0,0.0,0.0,0.0,0.0,0.0,0
76f897717d325b35,1551763513654,1070,-6657.0,-8193.0,10495.0,0.0,0.0,0.0,0.0,0.0,0.0,0
76f897717d325b35,1551763513744,1071,-6657.0,-8193.0,10495.0,0.0,0.0,0.0,0.0,0.0,0.0,0
76f897717d325b35,1551763513803,1072,-6657.0,-8193.0,10495.0,0.0,0.0,0.0,0.0,0.0,0.0,0
76f897717d325b35,1551763513894,1073,-6657.0,-8193.0,10495.0,0.0,0.0,0.0,0.0,0.0,0.0,0
76f897717d325b35,1551763513954,1074,-6657.0,-8193.0,10495.0,0.0,0.0,0.0,0.0,0.0,0.0,0
76f897717d325b35,1551763513984,1075,-6657.0,-8193.0,10495.0,0.0,0.0,0.0,0.0,0.0,0.0,0
76f897717d325b35,1551763514044,1076,-6657.0,-8193.0,10495.0,0.0,0.0,0.0,0.0,0.0,0.0,0
76f897717d325b35,1551763514134,1077,-6657.0,-8193.0,10495.0,0.0,0.0,0.0,0.0,0.0,0.0,0
76f897717d325b35,1551763514193,1078,-6657.0,-8193.0,10495.0,0.0,0.0,0.0,0.0,0.0,0.0,0
76f897717d325b35,1551763514254,1079,-6657.0,-8193.0,10495.0,0.0,0.0,0.0,0.0,0.0,0.0,0
76f897717d325b35,1551763514373,1080,-6657.0,-8193.0,10495.0,0.0,0.0,0.0,0.0,0.0,0.0,0
76f897717d325b35,1551763514374,1081,-6657.0,-8193.0,10495.0,0.0,0.0,0.0,0.0,0.0,0.0,0
76f897717d325b35,1551763514463,1082,-6657.0,-8193.0,10495.0,0.0,0.0,0.0,0.0,0.0,0.0,0
76f897717d325b35,1551763514553,1083,-6657.0,-8193.0,10495.0,0.0,0.0,0.0,0.0,0.0,0.0,0
76f897717d325b35,1551763514584,1084,-6657.0,-8193.0,10495.0,0.0,0.0,0.0,0.0,0.0,0.0,0
76f897717d325b35,1551763514703,1085,-6657.0,-8193.0,10495.0,0.0,0.0,0.0,0.0,0.0,0.0,0
76f897717d325b35,1551763514704,1086,-6657.0,-8193.0,10495.0,0.0,0.0,0.0,0.0,0.0,0.0,0
76f897717d325b35,1551763514823,1087,-6657.0,-8193.0,10495.0,0.0,0.0,0.0,0.0,0.0,0.0,0
76f897717d325b35,1551763514853,1088,-6657.0,-8193.0,10495.0,0.0,0.0,0.0,0.0,0.0,0.0,0
76f897717d325b35,1551763514914,1089,-6657.0,-8193.0,10495.0,0.0,0.0,0.0,0.0,0.0,0.0,0
76f897717d325b35,1551763515004,1090,-6657.0,-8193.0,10495.0,0.0,0.0,0.0,0.0,0.0,0.0,0
76f897717d325b35,1551763515063,1091,-6657.0,-8193.0,10495.0,0.0,0.0,0.0,0.0,0.0,0.0,0
76f897717d325b35,1551763515124,1092,-6657.0,-8193.0,10495.0,0.0,0.0,0.0,0.0,0.0,0.0,0
76f897717d325b35,1551763515214,1093,-6657.0,-8193.0,10495.0,0.0,0.0,0.0,0.0,0.0,0.0,0
76f897717d325b35,1551763515244,1094,-6657.0,-8193.0,10495.0,0.0,0.0,0.0,0.0,0.0,0.0,0
76f897717d325b35,1551763515363,1095,-6657.0,-8193.0,10495.0,0.0,0.0,0.0,0.0,0.0,0.0,0
76f897717d325b35,1551763515364,1096,-6657.0,-8193.0,10495.0,0.0,0.0,0.0,0.0,0.0,0.0,0
76f897717d325b35,1551763515484,1097,-6657.0,-8193.0,10495.0,0.0,0.0,0.0,0.0,0.0,0.0,0
76f897717d325b35,1551763515514,1098,-6657.0,-8193.0,10495.0,0.0,0.0,0.0,0.0,0.0,0.0,0
76f897717d325b35,1551763515573,1099,-6657.0,-8193.0,10495.0,0.0,0.0,0.0,0.0,0.0,0.0,0
76f897717d325b35,1551763515634,1100,-6657.0,-8193.0,10495.0,0.0,0.0,0.0,0.0,0.0,0.0,0
76f897717d325b35,1551763515724,1101,-6657.0,-8193.0,10495.0,0.0,0.0,0.0,0.0,0.0,0.0,0
76f897717d325b35,1551763515813,1102,-6657.0,-8193.0,10495.0,0.0,0.0,0.0,0.0,0.0,0.0,0
76f897717d325b35,1551763515874,1103,-6657.0,-8193.0,10495.0,0.0,0.0,0.0,0.0,0.0,0.0,0
76f897717d325b35,1551763515904,1104,-6657.0,-8193.0,10495.0,0.0,0.0,0.0,0.0,0.0,0.0,0
76f897717d325b35,1551763515994,1105,-6657.0,-8193.0,10495.0,0.0,0.0,0.0,0.0,0.0,0.0,0
76f897717d325b35,1551763516023,1106,-6657.0,-8193.0,10495.0,0.0,0.0,0.0,0.0,0.0,0.0,0
76f897717d325b35,1551763516114,1107,-6657.0,-8193.0,10495.0,0.0,0.0,0.0,0.0,0.0,0.0,0
76f897717d325b35,1551763516233,1108,-6657.0,-8193.0,10495.0,0.0,0.0,0.0,0.0,0.0,0.0,0
76f897717d325b35,1551763516234,1109,-6657.0,-8193.0,10495.0,0.0,0.0,0.0,0.0,0.0,0.0,0
76f897717d325b35,1551763516293,1110,-6657.0,-8193.0,10495.0,0.0,0.0,0.0,0.0,0.0,0.0,0
76f897717d325b35,1551763516353,1111,-6657.0,-8193.0,10495.0,0.0,0.0,0.0,0.0,0.0,0.0,0
76f897717d325b35,1551763516443,1112,-6657.0,-8193.0,10495.0,0.0,0.0,0.0,0.0,0.0,0.0,0
76f897717d325b35,1551763516503,1113,-6657.0,-8193.0,10495.0,0.0,0.0,0.0,0.0,0.0,0.0,0
76f897717d325b35,1551763516563,1114,-6657.0,-8193.0,10495.0,0.0,0.0,0.0,0.0,0.0,0.0,0
76f897717d325b35,1551763516623,1115,-6657.0,-8193.0,10495.0,0.0,0.0,0.0,0.0,0.0,0.0,0
76f897717d325b35,1551763516683,1116,-6657.0,-8193.0,10495.0,0.0,0.0,0.0,0.0,0.0,0.0,0
76f897717d325b35,1551763516773,1117,-6657.0,-8193.0,10495.0,0.0,0.0,0.0,0.0,0.0,0.0,0
76f897717d325b35,1551763516833,1118,-6657.0,-8193.0,10495.0,0.0,0.0,0.0,0.0,0.0,0.0,0
76f897717d325b35,1551763516894,1119,-6657.0,-8193.0,10495.0,0.0,0.0,0.0,0.0,0.0,0.0,0
76f897717d325b35,1551763516984,1120,-6657.0,-8193.0,10495.0,0.0,0.0,0.0,0.0,0.0,0.0,0
76f897717d325b35,1551763517043,1121,-6657.0,-8193.0,10495.0,0.0,0.0,0.0,0.0,0.0,0.0,0
76f897717d325b35,1551763517103,1122,-6657.0,-8193.0,10495.0,0.0,0.0,0.0,0.0,0.0,0.0,0
76f897717d325b35,1551763517163,1123,-6657.0,-8193.0,10495.0,0.0,0.0,0.0,0.0,0.0,0.0,0
76f897717d325b35,1551763517224,1124,-6657.0,-8193.0,10495.0,0.0,0.0,0.0,0.0,0.0,0.0,0
76f897717d325b35,1551763517284,1125,-6657.0,-8193.0,10495.0,0.0,0.0,0.0,0.0,0.0,0.0,0
76f897717d325b35,1551763517343,1126,-6657.0,-8193.0,10495.0,0.0,0.0,0.0,0.0,0.0,0.0,0
76f897717d325b35,1551763517434,1127,-6657.0,-8193.0,10495.0,0.0,0.0,0.0,0.0,0.0,0.0,0
76f897717d325b35,1551763517493,1128,-6657.0,-8193.0,10495.0,0.0,0.0,0.0,0.0,0.0,0.0,0
76f897717d325b35,1551763517553,1129,-6657.0,-8193.0,10495.0,0.0,0.0,0.0,0.0,0.0,0.0,0
76f897717d325b35,1551763517614,1130,-6657.0,-8193.0,10495.0,0.0,0.0,0.0,0.0,0.0,0.0,0
76f897717d325b35,1551763517673,1131,-6657.0,-8193.0,10495.0,0.0,0.0,0.0,0.0,0.0,0.0,0
76f897717d325b35,1551763517793,1132,-6657.0,-8193.0,10495.0,0.0,0.0,0.0,0.0,0.0,0.0,0
76f897717d325b35,1551763517823,1133,-6657.0,-8193.0,10495.0,0.0,0.0,0.0,0.0,0.0,0.0,0
76f897717d325b35,1551763517883,1134,-6657.0,-8193.0,10495.0,0.0,0.0,0.0,0.0,0.0,0.0,0
76f897717d325b35,1551763517943,1135,-6657.0,-8193.0,10495.0,0.0,0.0,0.0,0.0,0.0,0.0,0
76f897717d325b35,1551763518003,1136,-6657.0,-8193.0,10495.0,0.0,0.0,0.0,0.0,0.0,0.0,0
76f897717d325b35,1551763518094,1137,-6657.0,-8193.0,10495.0,0.0,0.0,0.0,0.0,0.0,0.0,0
76f897717d325b35,1551763518154,1138,-6657.0,-8193.0,10495.0,0.0,0.0,0.0,0.0,0.0,0.0,0
76f897717d325b35,1551763518244,1139,-6657.0,-8193.0,10495.0,0.0,0.0,0.0,0.0,0.0,0.0,0
76f897717d325b35,1551763518303,1140,-6657.0,-8193.0,10495.0,0.0,0.0,0.0,0.0,0.0,0.0,0
76f897717d325b35,1551763518334,1141,-6657.0,-8193.0,10495.0,0.0,0.0,0.0,0.0,0.0,0.0,0
76f897717d325b35,1551763518423,1142,-6657.0,-8193.0,10495.0,0.0,0.0,0.0,0.0,0.0,0.0,0
76f897717d325b35,1551763518484,1143,-6657.0,-8193.0,10495.0,0.0,0.0,0.0,0.0,0.0,0.0,0
76f897717d325b35,1551763518544,1144,-6657.0,-8193.0,10495.0,0.0,0.0,0.0,0.0,0.0,0.0,0
76f897717d325b35,1551763518603,1145,-6657.0,-8193.0,10495.0,0.0,0.0,0.0,0.0,0.0,0.0,0
76f897717d325b35,1551763518663,1146,-6657.0,-8193.0,10495.0,0.0,0.0,0.0,0.0,0.0,0.0,0
76f897717d325b35,1551763518753,1147,-6657.0,-8193.0,10495.0,0.0,0.0,0.0,0.0,0.0,0.0,0
76f897717d325b35,1551763518843,1148,-6657.0,-8193.0,10495.0,0.0,0.0,0.0,0.0,0.0,0.0,0
76f897717d325b35,1551763518873,1149,-6657.0,-8193.0,10495.0,0.0,0.0,0.0,0.0,0.0,0.0,0
76f897717d325b35,1551763518992,1150,-6657.0,-8193.0,10495.0,0.0,0.0,0.0,0.0,0.0,0.0,0
76f897717d325b35,1551763518994,1151,-6657.0,-8193.0,10495.0,0.0,0.0,0.0,0.0,0.0,0.0,0
76f897717d325b35,1551763519083,1152,-6657.0,-8193.0,10495.0,0.0,0.0,0.0,0.0,0.0,0.0,0
76f897717d325b35,1551763519203,1153,-6657.0,-8193.0,10495.0,0.0,0.0,0.0,0.0,0.0,0.0,0
76f897717d325b35,1551763519204,1154,-6657.0,-8193.0,10495.0,0.0,0.0,0.0,0.0,0.0,0.0,0
76f897717d325b35,1551763519263,1155,-6657.0,-8193.0,10495.0,0.0,0.0,0.0,0.0,0.0,0.0,0
76f897717d325b35,1551763519353,1156,-6657.0,-8193.0,10495.0,0.0,0.0,0.0,0.0,0.0,0.0,0
76f897717d325b35,1551763519414,1157,-6657.0,-8193.0,10495.0,0.0,0.0,0.0,0.0,0.0,0.0,0
76f897717d325b35,1551763519503,1158,-6657.0,-8193.0,10495.0,0.0,0.0,0.0,0.0,0.0,0.0,0
76f897717d325b35,1551763519563,1159,-6657.0,-8193.0,10495.0,0.0,0.0,0.0,0.0,0.0,0.0,0
76f897717d325b35,1551763519593,1160,-6657.0,-8193.0,10495.0,0.0,0.0,0.0,0.0,0.0,0.0,0
76f897717d325b35,1551763519683,1161,-6657.0,-8193.0,10495.0,0.0,0.0,0.0,0.0,0.0,0.0,0
76f897717d325b35,1551763519744,1162,-6657.0,-8193.0,10495.0,0.0,0.0,0.0,0.0,0.0,0.0,0
76f897717d325b35,1551763519803,1163,-6657.0,-8193.0,10495.0,0.0,0.0,0.0,0.0,0.0,0.0,0
76f897717d325b35,1551763519863,1164,-6657.0,-8193.0,10495.0,0.0,0.0,0.0,0.0,0.0,0.0,0
76f897717d325b35,1551763519923,1165,-6657.0,-8193.0,10495.0,0.0,0.0,0.0,0.0,0.0,0.0,0
76f897717d325b35,1551763519983,1166,-6657.0,-8193.0,10495.0,0.0,0.0,0.0,0.0,0.0,0.0,0
76f897717d325b35,1551763520073,1167,-6657.0,-8193.0,10495.0,0.0,0.0,0.0,0.0,0.0,0.0,0
76f897717d325b35,1551763520222,1168,-6657.0,-8193.0,10495.0,0.0,0.0,0.0,0.0,0.0,0.0,0
76f897717d325b35,1551763520224,1169,-6657.0,-8193.0,10495.0,0.0,0.0,0.0,0.0,0.0,0.0,0
76f897717d325b35,1551763520253,1170,-6657.0,-8193.0,10495.0,0.0,0.0,0.0,0.0,0.0,0.0,0
76f897717d325b35,1551763520313,1171,-6657.0,-8193.0,10495.0,0.0,0.0,0.0,0.0,0.0,0.0,0
76f897717d325b35,1551763520433,1172,-6657.0,-8193.0,10495.0,0.0,0.0,0.0,0.0,0.0,0.0,0
76f897717d325b35,1551763520493,1173,-6657.0,-8193.0,10495.0,0.0,0.0,0.0,0.0,0.0,0.0,0
76f897717d325b35,1551763520523,1174,-6657.0,-8193.0,10495.0,0.0,0.0,0.0,0.0,0.0,0.0,0
76f897717d325b35,1551763520583,1175,-6657.0,-8193.0,10495.0,0.0,0.0,0.0,0.0,0.0,0.0,0
76f897717d325b35,1551763520644,1176,-6657.0,-8193.0,10751.0,0.0,0.0,0.0,0.0,0.0,0.0,0
76f897717d325b35,1551763520853,1177,-6657.0,-8193.0,10751.0,0.0,0.0,0.0,0.0,0.0,0.0,0
76f897717d325b35,1551763520913,1178,-6657.0,-7937.0,10751.0,0.0,0.0,0.0,0.0,0.0,0.0,0
76f897717d325b35,1551763520914,1179,-6401.0,-7937.0,11007.0,0.0,0.0,0.0,0.0,0.0,0.0,0
76f897717d325b35,1551763520915,1180,-6401.0,-8449.0,10751.0,0.0,0.0,0.0,0.0,0.0,0.0,0
76f897717d325b35,1551763521573,1181,-6913.0,-8449.0,10495.0,0.0,0.0,0.0,0.0,0.0,0.0,0
76f897717d325b35,1551763521574,1182,-7169.0,-7937.0,11007.0,0.0,0.0,0.0,0.0,0.0,0.0,0
76f897717d325b35,1551763521576,1183,-6657.0,-7937.0,11007.0,0.0,0.0,0.0,0.0,0.0,0.0,0
76f897717d325b35,1551763521577,1184,-6913.0,-7937.0,10751.0,0.0,0.0,0.0,0.0,0.0,0.0,0
76f897717d325b35,1551763521578,1185,-7169.0,-7937.0,11007.0,0.0,0.0,0.0,0.0,0.0,0.0,0
76f897717d325b35,1551763521579,1186,-6913.0,-7937.0,10751.0,0.0,0.0,0.0,0.0,0.0,0.0,0
76f897717d325b35,1551763521580,1187,-7169.0,-7937.0,10751.0,0.0,0.0,0.0,0.0,0.0,0.0,0
76f897717d325b35,1551763521633,1188,-6657.0,-7937.0,10751.0,0.0,0.0,0.0,0.0,0.0,0.0,0
76f897717d325b35,1551763523955,1189,-6657.0,-7681.0,11519.0,0.0,0.0,0.0,0.0,0.0,0.0,0
76f897717d325b35,1551763523956,1190,-6657.0,-7681.0,11519.0,0.0,0.0,0.0,0.0,0.0,0.0,0
76f897717d325b35,1551763523958,1191,-5889.0,-8193.0,11263.0,0.0,0.0,0.0,0.0,0.0,0.0,0
76f897717d325b35,1551763523959,1192,-5633.0,-8193.0,11263.0,0.0,0.0,0.0,0.0,0.0,0.0,0
76f897717d325b35,1551763524225,1193,-6145.0,-8449.0,11007.0,0.0,0.0,0.0,0.0,0.0,0.0,0
76f897717d325b35,1551763524227,1194,-6401.0,-7937.0,10239.0,0.0,0.0,0.0,0.0,0.0,0.0,0
76f897717d325b35,1551763524228,1195,-6145.0,-8193.0,11007.0,0.0,0.0,0.0,0.0,0.0,0.0,0
76f897717d325b35,1551763524230,1196,-5633.0,-8705.0,10751.0,0.0,0.0,0.0,0.0,0.0,0.0,0
76f897717d325b35,1551763524286,1197,-5633.0,-7937.0,11007.0,0.0,0.0,0.0,0.0,0.0,0.0,0
76f897717d325b35,1551763524316,1198,-5633.0,-8193.0,11519.0,0.0,0.0,0.0,0.0,0.0,0.0,0
76f897717d325b35,1551763526378,1199,-6401.0,-8961.0,7935.0,0.0,0.0,0.0,0.0,0.0,0.0,0
76f897717d325b35,1551763526379,1200,-5889.0,-8449.0,8703.0,0.0,0.0,0.0,0.0,0.0,0.0,0
76f897717d325b35,1551763526438,1201,-5633.0,-8705.0,7679.0,0.0,0.0,0.0,0.0,0.0,0.0,0
76f897717d325b35,1551763526528,1202,-5633.0,-8705.0,7423.0,0.0,0.0,0.0,0.0,0.0,0.0,0
76f897717d325b35,1551763526558,1203,-5377.0,-8193.0,7423.0,0.0,0.0,0.0,0.0,0.0,0.0,0
76f897717d325b35,1551763526677,1204,-5377.0,-8449.0,7423.0,0.0,0.0,0.0,0.0,0.0,0.0,0
76f897717d325b35,1551763526679,1205,-5633.0,-8449.0,7423.0,0.0,0.0,0.0,0.0,0.0,0.0,0
76f897717d325b35,1551763526768,1206,-5633.0,-8193.0,7423.0,0.0,0.0,0.0,0.0,0.0,0.0,0
76f897717d325b35,1551763526858,1207,-5633.0,-8705.0,7679.0,0.0,0.0,0.0,0.0,0.0,0.0,0
76f897717d325b35,1551763526888,1208,-5633.0,-8449.0,7423.0,0.0,0.0,0.0,0.0,0.0,0.0,0
76f897717d325b35,1551763526948,1209,-5889.0,-8449.0,7423.0,0.0,0.0,0.0,0.0,0.0,0.0,0
76f897717d325b35,1551763527008,1210,-5633.0,-8705.0,7423.0,0.0,0.0,0.0,0.0,0.0,0.0,0
76f897717d325b35,1551763527098,1211,-5889.0,-8193.0,7423.0,0.0,0.0,0.0,0.0,0.0,0.0,0
76f897717d325b35,1551763527188,1212,-6145.0,-8705.0,7679.0,0.0,0.0,0.0,0.0,0.0,0.0,0
76f897717d325b35,1551763527248,1213,-5889.0,-8449.0,7423.0,0.0,0.0,0.0,0.0,0.0,0.0,0
76f897717d325b35,1551763527278,1214,-5889.0,-8449.0,7167.0,0.0,0.0,0.0,0.0,0.0,0.0,0
76f897717d325b35,1551763527338,1215,-5889.0,-8449.0,7423.0,0.0,0.0,0.0,0.0,0.0,0.0,0
76f897717d325b35,1551763527458,1216,-5633.0,-8449.0,7423.0,0.0,0.0,0.0,0.0,0.0,0.0,0
76f897717d325b35,1551763527488,1217,-5889.0,-8449.0,7423.0,0.0,0.0,0.0,0.0,0.0,0.0,0
76f897717d325b35,1551763527548,1218,-5633.0,-8449.0,7167.0,0.0,0.0,0.0,0.0,0.0,0.0,0
76f897717d325b35,1551763527608,1219,-5633.0,-8449.0,7167.0,0.0,0.0,0.0,0.0,0.0,0.0,0
76f897717d325b35,1551763527668,1220,-5889.0,-8449.0,6911.0,0.0,0.0,0.0,0.0,0.0,0.0,0
76f897717d325b35,1551763527787,1221,-5889.0,-8193.0,7167.0,0.0,0.0,0.0,0.0,0.0,0.0,0
76f897717d325b35,1551763527818,1222,-5633.0,-8705.0,7423.0,0.0,0.0,0.0,0.0,0.0,0.0,0
76f897717d325b35,1551763527878,1223,-5633.0,-8449.0,7423.0,0.0,0.0,0.0,0.0,0.0,0.0,0
76f897717d325b35,1551763527998,1224,-5889.0,-8193.0,6911.0,0.0,0.0,0.0,0.0,0.0,0.0,0
76f897717d325b35,1551763527999,1225,-5121.0,-8193.0,7423.0,0.0,0.0,0.0,0.0,0.0,0.0,0
76f897717d325b35,1551763528088,1226,-5377.0,-8705.0,7167.0,0.0,0.0,0.0,0.0,0.0,0.0,0
76f897717d325b35,1551763528178,1227,-5377.0,-8193.0,7167.0,0.0,0.0,0.0,0.0,0.0,0.0,0
76f897717d325b35,1551763528208,1228,-5633.0,-8449.0,7167.0,0.0,0.0,0.0,0.0,0.0,0.0,0
76f897717d325b35,1551763528298,1229,-5889.0,-8449.0,7423.0,0.0,0.0,0.0,0.0,0.0,0.0,0
76f897717d325b35,1551763528328,1230,-5889.0,-8705.0,7423.0,0.0,0.0,0.0,0.0,0.0,0.0,0
76f897717d325b35,1551763528477,1231,-5633.0,-8193.0,7167.0,0.0,0.0,0.0,0.0,0.0,0.0,0
76f897717d325b35,1551763528479,1232,-5377.0,-8449.0,7167.0,0.0,0.0,0.0,0.0,0.0,0.0,0
76f897717d325b35,1551763528538,1233,-5633.0,-7937.0,7167.0,0.0,0.0,0.0,0.0,0.0,0.0,0
76f897717d325b35,1551763528598,1234,-5889.0,-8449.0,7679.0,0.0,0.0,0.0,0.0,0.0,0.0,0
76f897717d325b35,1551763528658,1235,-6145.0,-8705.0,7167.0,0.0,0.0,0.0,0.0,0.0,0.0,0
76f897717d325b35,1551763528748,1236,-6145.0,-8193.0,7167.0,0.0,0.0,0.0,0.0,0.0,0.0,0
76f897717d325b35,1551763528808,1237,-5633.0,-8705.0,7167.0,0.0,0.0,0.0,0.0,0.0,0.0,0
76f897717d325b35,1551763528898,1238,-5889.0,-8193.0,7167.0,0.0,0.0,0.0,0.0,0.0,0.0,0
76f897717d325b35,1551763528928,1239,-6145.0,-8449.0,7167.0,0.0,0.0,0.0,0.0,0.0,0.0,0
76f897717d325b35,1551763528988,1240,-6145.0,-8449.0,7167.0,0.0,0.0,0.0,0.0,0.0,0.0,0
76f897717d325b35,1551763529108,1241,-6145.0,-8449.0,7167.0,0.0,0.0,0.0,0.0,0.0,0.0,0
76f897717d325b35,1551763529138,1242,-6145.0,-8193.0,7167.0,0.0,0.0,0.0,0.0,0.0,0.0,0
76f897717d325b35,1551763529198,1243,-5889.0,-8449.0,6911.0,0.0,0.0,0.0,0.0,0.0,0.0,0
76f897717d325b35,1551763529288,1244,-5633.0,-7937.0,6911.0,0.0,0.0,0.0,0.0,0.0,0.0,0
76f897717d325b35,1551763529318,1245,-5889.0,-8193.0,6911.0,0.0,0.0,0.0,0.0,0.0,0.0,0
76f897717d325b35,1551763529408,1246,-5889.0,-8193.0,7167.0,0.0,0.0,0.0,0.0,0.0,0.0,0
76f897717d325b35,1551763529498,1247,-5889.0,-8449.0,7423.0,0.0,0.0,0.0,0.0,0.0,0.0,0
76f897717d325b35,1551763529528,1248,-6145.0,-8449.0,7167.0,0.0,0.0,0.0,0.0,0.0,0.0,0
76f897717d325b35,1551763529588,1249,-6401.0,-8449.0,6911.0,0.0,0.0,0.0,0.0,0.0,0.0,0
76f897717d325b35,1551763529648,1250,-5889.0,-8449.0,7167.0,0.0,0.0,0.0,0.0,0.0,0.0,0
76f897717d325b35,1551763529738,1251,-5889.0,-8193.0,7167.0,0.0,0.0,0.0,0.0,0.0,0.0,0
76f897717d325b35,1551763529828,1252,-5889.0,-8705.0,7423.0,0.0,0.0,0.0,0.0,0.0,0.0,0
76f897717d325b35,1551763529858,1253,-5889.0,-8193.0,7167.0,0.0,0.0,0.0,0.0,0.0,0.0,0
76f897717d325b35,1551763529918,1254,-5889.0,-8193.0,6911.0,0.0,0.0,0.0,0.0,0.0,0.0,0
76f897717d325b35,1551763529978,1255,-5889.0,-8449.0,7167.0,0.0,0.0,0.0,0.0,0.0,0.0,0
76f897717d325b35,1551763530098,1256,-5889.0,-8193.0,6911.0,0.0,0.0,0.0,0.0,0.0,0.0,0
76f897717d325b35,1551763530128,1257,-5889.0,-7937.0,6655.0,0.0,0.0,0.0,0.0,0.0,0.0,0
76f897717d325b35,1551763530188,1258,-5889.0,-8449.0,7167.0,0.0,0.0,0.0,0.0,0.0,0.0,0
76f897717d325b35,1551763530248,1259,-5633.0,-8193.0,7167.0,0.0,0.0,0.0,0.0,0.0,0.0,0
76f897717d325b35,1551763530338,1260,-6145.0,-8193.0,6911.0,0.0,0.0,0.0,0.0,0.0,0.0,0
76f897717d325b35,1551763530398,1261,-5889.0,-8449.0,6911.0,0.0,0.0,0.0,0.0,0.0,0.0,0
76f897717d325b35,1551763530488,1262,-5889.0,-8193.0,7167.0,0.0,0.0,0.0,0.0,0.0,0.0,0
76f897717d325b35,1551763530518,1263,-5889.0,-8449.0,7167.0,0.0,0.0,0.0,0.0,0.0,0.0,0
76f897717d325b35,1551763530578,1264,-5889.0,-8193.0,7167.0,0.0,0.0,0.0,0.0,0.0,0.0,0
76f897717d325b35,1551763530638,1265,-6145.0,-8449.0,6911.0,0.0,0.0,0.0,0.0,0.0,0.0,0
76f897717d325b35,1551763530728,1266,-5889.0,-8449.0,7167.0,0.0,0.0,0.0,0.0,0.0,0.0,0
76f897717d325b35,1551763530788,1267,-5889.0,-8193.0,7423.0,0.0,0.0,0.0,0.0,0.0,0.0,0
76f897717d325b35,1551763530848,1268,-5889.0,-8449.0,7167.0,0.0,0.0,0.0,0.0,0.0,0.0,0
76f897717d325b35,1551763530908,1269,-5889.0,-8449.0,7167.0,0.0,0.0,0.0,0.0,0.0,0.0,0
76f897717d325b35,1551763530968,1270,-5889.0,-8193.0,7167.0,0.0,0.0,0.0,0.0,0.0,0.0,0
76f897717d325b35,1551763531058,1271,-6145.0,-8193.0,7167.0,0.0,0.0,0.0,0.0,0.0,0.0,0
76f897717d325b35,1551763531118,1272,-5889.0,-8193.0,6911.0,0.0,0.0,0.0,0.0,0.0,0.0,0
76f897717d325b35,1551763531178,1273,-5889.0,-8193.0,6911.0,0.0,0.0,0.0,0.0,0.0,0.0,0
76f897717d325b35,1551763531268,1274,-5889.0,-8193.0,6911.0,0.0,0.0,0.0,0.0,0.0,0.0,0
76f897717d325b35,1551763531298,1275,-5889.0,-8193.0,6655.0,0.0,0.0,0.0,0.0,0.0,0.0,0
76f897717d325b35,1551763531388,1276,-5889.0,-8193.0,6911.0,0.0,0.0,0.0,0.0,0.0,0.0,0
76f897717d325b35,1551763531448,1277,-5889.0,-8193.0,6911.0,0.0,0.0,0.0,0.0,0.0,0.0,0
76f897717d325b35,1551763531508,1278,-5889.0,-8193.0,6911.0,0.0,0.0,0.0,0.0,0.0,0.0,0
76f897717d325b35,1551763531568,1279,-5889.0,-8193.0,6655.0,0.0,0.0,0.0,0.0,0.0,0.0,0
76f897717d325b35,1551763531628,1280,-5889.0,-7937.0,6911.0,0.0,0.0,0.0,0.0,0.0,0.0,0
76f897717d325b35,1551763531718,1281,-5889.0,-7937.0,6911.0,0.0,0.0,0.0,0.0,0.0,0.0,0
76f897717d325b35,1551763531778,1282,-5889.0,-8193.0,6911.0,0.0,0.0,0.0,0.0,0.0,0.0,0
76f897717d325b35,1551763531838,1283,-6145.0,-8193.0,6911.0,0.0,0.0,0.0,0.0,0.0,0.0,0
76f897717d325b35,1551763531898,1284,-5889.0,-8193.0,6911.0,0.0,0.0,0.0,0.0,0.0,0.0,0
76f897717d325b35,1551763531958,1285,-6145.0,-8449.0,7167.0,0.0,0.0,0.0,0.0,0.0,0.0,0
76f897717d325b35,1551763532048,1286,-5633.0,-8193.0,6911.0,0.0,0.0,0.0,0.0,0.0,0.0,0
76f897717d325b35,1551763532138,1287,-5889.0,-8193.0,7167.0,0.0,0.0,0.0,0.0,0.0,0.0,0
76f897717d325b35,1551763532198,1288,-5889.0,-8449.0,7167.0,0.0,0.0,0.0,0.0,0.0,0.0,0
76f897717d325b35,1551763532228,1289,-5889.0,-8449.0,7167.0,0.0,0.0,0.0,0.0,0.0,0.0,0
76f897717d325b35,1551763532288,1290,-5633.0,-8449.0,7167.0,0.0,0.0,0.0,0.0,0.0,0.0,0
76f897717d325b35,1551763532378,1291,-5633.0,-8193.0,7167.0,0.0,0.0,0.0,0.0,0.0,0.0,0
76f897717d325b35,1551763532438,1292,-5889.0,-8449.0,7167.0,0.0,0.0,0.0,0.0,0.0,0.0,0
76f897717d325b35,1551763532498,1293,-5633.0,-8193.0,7167.0,0.0,0.0,0.0,0.0,0.0,0.0,0
76f897717d325b35,1551763532558,1294,-5633.0,-8193.0,7167.0,0.0,0.0,0.0,0.0,0.0,0.0,0
76f897717d325b35,1551763532618,1295,-5889.0,-8449.0,6911.0,0.0,0.0,0.0,0.0,0.0,0.0,0
76f897717d325b35,1551763532738,1296,-5633.0,-8449.0,7167.0,0.0,0.0,0.0,0.0,0.0,0.0,0
76f897717d325b35,1551763532827,1297,-5889.0,-8449.0,6911.0,0.0,0.0,0.0,0.0,0.0,0.0,0
76f897717d325b35,1551763532829,1298,-5889.0,-8193.0,7167.0,0.0,0.0,0.0,0.0,0.0,0.0,0
76f897717d325b35,1551763532888,1299,-5889.0,-8449.0,7167.0,0.0,0.0,0.0,0.0,0.0,0.0,0
76f897717d325b35,1551763532977,1300,-5889.0,-8449.0,6911.0,0.0,0.0,0.0,0.0,0.0,0.0,0
76f897717d325b35,1551763533038,1301,-5889.0,-8449.0,7167.0,0.0,0.0,0.0,0.0,0.0,0.0,0
76f897717d325b35,1551763533098,1302,-5889.0,-8449.0,7167.0,0.0,0.0,0.0,0.0,0.0,0.0,0
76f897717d325b35,1551763533188,1303,-5633.0,-8193.0,7167.0,0.0,0.0,0.0,0.0,0.0,0.0,0
76f897717d325b35,1551763533457,1304,-5633.0,-8193.0,7167.0,0.0,0.0,0.0,0.0,0.0,0.0,0
76f897717d325b35,1551763533458,1305,-5889.0,-8449.0,7167.0,0.0,0.0,0.0,0.0,0.0,0.0,0
76f897717d325b35,1551763533516,1306,-5889.0,-8705.0,7167.0,0.0,0.0,0.0,0.0,0.0,0.0,0
76f897717d325b35,1551763533517,1307,-6145.0,-9473.0,6911.0,0.0,0.0,0.0,0.0,0.0,0.0,0
76f897717d325b35,1551763533519,1308,-5633.0,-8449.0,7935.0,0.0,0.0,0.0,0.0,0.0,0.0,0
76f897717d325b35,1551763533548,1309,-5121.0,-7681.0,7167.0,0.0,0.0,0.0,0.0,0.0,0.0,0
76f897717d325b35,1551763533608,1310,-4865.0,-7425.0,6399.0,0.0,0.0,0.0,0.0,0.0,0.0,0
76f897717d325b35,1551763533757,1311,-5377.0,-7681.0,6399.0,0.0,0.0,0.0,0.0,0.0,0.0,0
76f897717d325b35,1551763533758,1312,-6145.0,-8449.0,7167.0,0.0,0.0,0.0,0.0,0.0,0.0,0
76f897717d325b35,1551763533848,1313,-6401.0,-8705.0,7423.0,0.0,0.0,0.0,0.0,0.0,0.0,0
76f897717d325b35,1551763533878,1314,-6401.0,-8449.0,7679.0,0.0,0.0,0.0,0.0,0.0,0.0,0
76f897717d325b35,1551763533938,1315,-6401.0,-8193.0,7679.0,0.0,0.0,0.0,0.0,0.0,0.0,0
76f897717d325b35,1551763534028,1316,-6657.0,-8193.0,7423.0,0.0,0.0,0.0,0.0,0.0,0.0,0
76f897717d325b35,1551763534088,1317,-6401.0,-8449.0,7679.0,0.0,0.0,0.0,0.0,0.0,0.0,0
76f897717d325b35,1551763534148,1318,-6657.0,-8193.0,7423.0,0.0,0.0,0.0,0.0,0.0,0.0,0
76f897717d325b35,1551763534208,1319,-6913.0,-8705.0,7423.0,0.0,0.0,0.0,0.0,0.0,0.0,0
76f897717d325b35,1551763534267,1320,-7169.0,-8449.0,8447.0,0.0,0.0,0.0,0.0,0.0,0.0,0
76f897717d325b35,1551763534388,1321,-7681.0,-7937.0,7935.0,0.0,0.0,0.0,0.0,0.0,0.0,0
76f897717d325b35,1551763534418,1322,-7937.0,-7681.0,7679.0,0.0,0.0,0.0,0.0,0.0,0.0,0
76f897717d325b35,1551763534478,1323,-7937.0,-6913.0,7935.0,0.0,0.0,0.0,0.0,0.0,0.0,0
76f897717d325b35,1551763534538,1324,-7937.0,-7169.0,7679.0,0.0,0.0,0.0,0.0,0.0,0.0,0
76f897717d325b35,1551763534598,1325,-8449.0,-7169.0,7423.0,0.0,0.0,0.0,0.0,0.0,0.0,0
76f897717d325b35,1551763534688,1326,-8705.0,-6401.0,7423.0,0.0,0.0,0.0,0.0,0.0,0.0,0
76f897717d325b35,1551763534748,1327,-8705.0,-5633.0,7167.0,0.0,0.0,0.0,0.0,0.0,0.0,0
76f897717d325b35,1551763534838,1328,-9217.0,-5633.0,7423.0,0.0,0.0,0.0,0.0,0.0,0.0,0
76f897717d325b35,1551763534868,1329,-9217.0,-4609.0,7423.0,0.0,0.0,0.0,0.0,0.0,0.0,0
76f897717d325b35,1551763534928,1330,-8449.0,-4097.0,7167.0,0.0,0.0,0.0,0.0,0.0,0.0,0
76f897717d325b35,1551763535018,1331,-8705.0,-4353.0,7167.0,0.0,0.0,0.0,0.0,0.0,0.0,0
76f897717d325b35,1551763535078,1332,-7937.0,-4353.0,7423.0,0.0,0.0,0.0,0.0,0.0,0.0,0
76f897717d325b35,1551763535138,1333,-8449.0,-5121.0,6143.0,0.0,0.0,0.0,0.0,0.0,0.0,0
76f897717d325b35,1551763535228,1334,-7681.0,-4609.0,6143.0,0.0,0.0,0.0,0.0,0.0,0.0,0
76f897717d325b35,1551763535347,1335,-8193.0,-5377.0,5631.0,0.0,0.0,0.0,0.0,0.0,0.0,0
76f897717d325b35,1551763535348,1336,-7425.0,-4353.0,5375.0,0.0,0.0,0.0,0.0,0.0,0.0,0
76f897717d325b35,1551763535408,1337,-7169.0,-5633.0,5631.0,0.0,0.0,0.0,0.0,0.0,0.0,0
76f897717d325b35,1551763535498,1338,-6145.0,-5377.0,5119.0,0.0,0.0,0.0,0.0,0.0,0.0,0
76f897717d325b35,1551763535528,1339,-6401.0,-5633.0,5887.0,0.0,0.0,0.0,0.0,0.0,0.0,0
76f897717d325b35,1551763535587,1340,-6145.0,-4865.0,5375.0,0.0,0.0,0.0,0.0,0.0,0.0,0
76f897717d325b35,1551763535767,1341,-5633.0,-4865.0,5375.0,0.0,0.0,0.0,0.0,0.0,0.0,0
76f897717d325b35,1551763535769,1342,-6913.0,-5377.0,4863.0,0.0,0.0,0.0,0.0,0.0,0.0,0
76f897717d325b35,1551763535798,1343,-7169.0,-5121.0,5375.0,0.0,0.0,0.0,0.0,0.0,0.0,0
76f897717d325b35,1551763535888,1344,-6913.0,-4865.0,5631.0,0.0,0.0,0.0,0.0,0.0,0.0,0
76f897717d325b35,1551763535918,1345,-7169.0,-5121.0,5119.0,0.0,0.0,0.0,0.0,0.0,0.0,0
76f897717d325b35,1551763536008,1346,-7425.0,-5121.0,5375.0,0.0,0.0,0.0,0.0,0.0,0.0,0
76f897717d325b35,1551763536068,1347,-7169.0,-5121.0,5375.0,0.0,0.0,0.0,0.0,0.0,0.0,0
76f897717d325b35,1551763536128,1348,-7169.0,-5121.0,5375.0,0.0,0.0,0.0,0.0,0.0,0.0,0
76f897717d325b35,1551763536188,1349,-7169.0,-4865.0,5375.0,0.0,0.0,0.0,0.0,0.0,0.0,0
76f897717d325b35,1551763536248,1350,-7169.0,-5121.0,5631.0,0.0,0.0,0.0,0.0,0.0,0.0,0
76f897717d325b35,1551763536338,1351,-7169.0,-5121.0,5375.0,0.0,0.0,0.0,0.0,0.0,0.0,0
76f897717d325b35,1551763536398,1352,-7425.0,-5121.0,5631.0,0.0,0.0,0.0,0.0,0.0,0.0,0
76f897717d325b35,1551763536457,1353,-7425.0,-5121.0,5631.0,0.0,0.0,0.0,0.0,0.0,0.0,0
76f897717d325b35,1551763536518,1354,-7425.0,-5121.0,5631.0,0.0,0.0,0.0,0.0,0.0,0.0,0
76f897717d325b35,1551763536578,1355,-7425.0,-5121.0,5631.0,0.0,0.0,0.0,0.0,0.0,0.0,0
76f897717d325b35,1551763536667,1356,-7425.0,-5121.0,5631.0,0.0,0.0,0.0,0.0,0.0,0.0,0
76f897717d325b35,1551763536787,1357,-7425.0,-5121.0,5631.0,0.0,0.0,0.0,0.0,0.0,0.0,0
76f897717d325b35,1551763536789,1358,-7425.0,-5121.0,5631.0,0.0,0.0,0.0,0.0,0.0,0.0,0
76f897717d325b35,1551763536847,1359,-7425.0,-5121.0,5631.0,0.0,0.0,0.0,0.0,0.0,0.0,0
76f897717d325b35,1551763536908,1360,-7425.0,-5121.0,5631.0,0.0,0.0,0.0,0.0,0.0,0.0,0
76f897717d325b35,1551763536998,1361,-7425.0,-5121.0,5631.0,0.0,0.0,0.0,0.0,0.0,0.0,0
76f897717d325b35,1551763537058,1362,-7681.0,-5121.0,5631.0,0.0,0.0,0.0,0.0,0.0,0.0,0
76f897717d325b35,1551763537118,1363,-7425.0,-5121.0,5631.0,0.0,0.0,0.0,0.0,0.0,0.0,0
76f897717d325b35,1551763537178,1364,-7425.0,-5121.0,5631.0,0.0,0.0,0.0,0.0,0.0,0.0,0
76f897717d325b35,1551763537238,1365,-7425.0,-5121.0,5631.0,0.0,0.0,0.0,0.0,0.0,0.0,0
76f897717d325b35,1551763537328,1366,-7425.0,-5121.0,5631.0,0.0,0.0,0.0,0.0,0.0,0.0,0
76f897717d325b35,1551763537388,1367,-7425.0,-5121.0,5631.0,0.0,0.0,0.0,0.0,0.0,0.0,0
76f897717d325b35,1551763537448,1368,-7425.0,-5121.0,5631.0,0.0,0.0,0.0,0.0,0.0,0.0,0
76f897717d325b35,1551763537508,1369,-7425.0,-5121.0,5631.0,0.0,0.0,0.0,0.0,0.0,0.0,0
76f897717d325b35,1551763537567,1370,-7425.0,-5121.0,5631.0,0.0,0.0,0.0,0.0,0.0,0.0,0
76f897717d325b35,1551763537688,1371,-7425.0,-5121.0,5631.0,0.0,0.0,0.0,0.0,0.0,0.0,0
76f897717d325b35,1551763537717,1372,-7425.0,-5121.0,5375.0,0.0,0.0,0.0,0.0,0.0,0.0,0
76f897717d325b35,1551763537808,1373,-7169.0,-5121.0,5375.0,0.0,0.0,0.0,0.0,0.0,0.0,0
76f897717d325b35,1551763537837,1374,-7169.0,-5121.0,5375.0,0.0,0.0,0.0,0.0,0.0,0.0,0
76f897717d325b35,1551763537928,1375,-7169.0,-5121.0,5375.0,0.0,0.0,0.0,0.0,0.0,0.0,0
76f897717d325b35,1551763538137,1376,-7169.0,-5121.0,5375.0,0.0,0.0,0.0,0.0,0.0,0.0,0
76f897717d325b35,1551763538139,1377,-7169.0,-5121.0,5375.0,0.0,0.0,0.0,0.0,0.0,0.0,0
76f897717d325b35,1551763538167,1378,-7169.0,-5121.0,5375.0,0.0,0.0,0.0,0.0,0.0,0.0,0
76f897717d325b35,1551763538168,1379,-7169.0,-5121.0,5375.0,0.0,0.0,0.0,0.0,0.0,0.0,0
76f897717d325b35,1551763538169,1380,-7169.0,-5121.0,5375.0,0.0,0.0,0.0,0.0,0.0,0.0,0
76f897717d325b35,1551763538227,1381,-7169.0,-5121.0,5375.0,0.0,0.0,0.0,0.0,0.0,0.0,0
76f897717d325b35,1551763538318,1382,-7169.0,-5121.0,5375.0,0.0,0.0,0.0,0.0,0.0,0.0,0
76f897717d325b35,1551763538378,1383,-6913.0,-5121.0,5375.0,0.0,0.0,0.0,0.0,0.0,0.0,0
76f897717d325b35,1551763538438,1384,-6913.0,-5121.0,5375.0,0.0,0.0,0.0,0.0,0.0,0.0,0
76f897717d325b35,1551763538498,1385,-6913.0,-5121.0,5375.0,0.0,0.0,0.0,0.0,0.0,0.0,0
76f897717d325b35,1551763538558,1386,-6913.0,-5121.0,5375.0,0.0,0.0,0.0,0.0,0.0,0.0,0
76f897717d325b35,1551763538648,1387,-7169.0,-5121.0,5375.0,0.0,0.0,0.0,0.0,0.0,0.0,0
76f897717d325b35,1551763538708,1388,-6913.0,-5121.0,5375.0,0.0,0.0,0.0,0.0,0.0,0.0,0
76f897717d325b35,1551763538767,1389,-7169.0,-5121.0,5375.0,0.0,0.0,0.0,0.0,0.0,0.0,0
76f897717d325b35,1551763538828,1390,-7169.0,-5121.0,5375.0,0.0,0.0,0.0,0.0,0.0,0.0,0
76f897717d325b35,1551763538888,1391,-7169.0,-5121.0,5375.0,0.0,0.0,0.0,0.0,0.0,0.0,0
76f897717d325b35,1551763538977,1392,-7169.0,-5121.0,5375.0,0.0,0.0,0.0,0.0,0.0,0.0,0
76f897717d325b35,1551763538979,1393,-7169.0,-5121.0,5375.0,0.0,0.0,0.0,0.0,0.0,0.0,0
76f897717d325b35,1551763539038,1394,-7169.0,-5121.0,5375.0,0.0,0.0,0.0,0.0,0.0,0.0,0
76f897717d325b35,1551763539098,1395,-7169.0,-5121.0,5375.0,0.0,0.0,0.0,0.0,0.0,0.0,0
76f897717d325b35,1551763539158,1396,-7169.0,-5121.0,5375.0,0.0,0.0,0.0,0.0,0.0,0.0,0
76f897717d325b35,1551763539217,1397,-7169.0,-5121.0,5375.0,0.0,0.0,0.0,0.0,0.0,0.0,0
76f897717d325b35,1551763539307,1398,-7169.0,-5121.0,5375.0,0.0,0.0,0.0,0.0,0.0,0.0,0
76f897717d325b35,1551763539308,1399,-7169.0,-5121.0,5375.0,0.0,0.0,0.0,0.0,0.0,0.0,0
76f897717d325b35,1551763539367,1400,-7169.0,-5121.0,5375.0,0.0,0.0,0.0,0.0,0.0,0.0,0
76f897717d325b35,1551763539428,1401,-7169.0,-5121.0,5631.0,0.0,0.0,0.0,0.0,0.0,0.0,0
76f897717d325b35,1551763539487,1402,-7169.0,-5121.0,5631.0,0.0,0.0,0.0,0.0,0.0,0.0,0
76f897717d325b35,1551763539548,1403,-7169.0,-5121.0,5631.0,0.0,0.0,0.0,0.0,0.0,0.0,0
76f897717d325b35,1551763539637,1404,-7169.0,-5121.0,5631.0,0.0,0.0,0.0,0.0,0.0,0.0,0
76f897717d325b35,1551763539638,1405,-7169.0,-5121.0,5631.0,0.0,0.0,0.0,0.0,0.0,0.0,0
76f897717d325b35,1551763539698,1406,-7169.0,-5121.0,5631.0,0.0,0.0,0.0,0.0,0.0,0.0,0
76f897717d325b35,1551763539757,1407,-7169.0,-5121.0,5631.0,0.0,0.0,0.0,0.0,0.0,0.0,0
76f897717d325b35,1551763539818,1408,-7425.0,-5121.0,5631.0,0.0,0.0,0.0,0.0,0.0,0.0,0
