2562-03-05 123335,,,,,,,,,,,,
Start Time,2562/03/05 12:33:35,Timestamp,1551764015786,,,,,,,,,
sensor ID,timestamp (ms),Sample Count,acc_x,acc_y,acc_z,gyro_x,gyro_y,gyro_z,mag_x,mag_y,mag_z,mark
76f897717d325b35,1551764015841,0,,,,,,,,,,0
76f897717d325b35,1551764015841,0,,,,,,,,,,0
76f897717d325b35,1551764015841,0,,,,,,,,,,0
76f897717d325b35,1551764015841,0,,,,,,,,,,0
76f897717d325b35,1551764015841,0,-5377.0,-8705.0,10495.0,0.0,0.0,0.0,0.0,0.0,0.0,0
76f897717d325b35,1551764015869,1,-5121.0,-8705.0,10751.0,0.0,0.0,0.0,0.0,0.0,0.0,0
76f897717d325b35,1551764015958,2,-5121.0,-8449.0,10495.0,0.0,0.0,0.0,0.0,0.0,0.0,0
76f897717d325b35,1551764015988,3,-5377.0,-8449.0,10751.0,0.0,0.0,0.0,0.0,0.0,0.0,0
76f897717d325b35,1551764016049,4,-5377.0,-8449.0,10495.0,0.0,0.0,0.0,0.0,0.0,0.0,0
76f897717d325b35,1551764016109,5,-5633.0,-8705.0,10751.0,0.0,0.0,0.0,0.0,0.0,0.0,0
76f897717d325b35,1551764016198,6,-5377.0,-8449.0,10495.0,0.0,0.0,0.0,0.0,0.0,0.0,0
76f897717d325b35,1551764016258,7,-4865.0,-8705.0,10495.0,0.0,0.0,0.0,0.0,0.0,0.0,0
76f897717d325b35,1551764016318,8,-5121.0,-8193.0,10751.0,0.0,0.0,0.0,0.0,0.0,0.0,0
76f897717d325b35,1551764016378,9,-5377.0,-8449.0,10751.0,0.0,0.0,0.0,0.0,0.0,0.0,0
76f897717d325b35,1551764016469,10,-4865.0,-8961.0,11007.0,0.0,0.0,0.0,0.0,0.0,0.0,0
76f897717d325b35,1551764016559,11,-4865.0,-8193.0,11007.0,0.0,0.0,0.0,0.0,0.0,0.0,0
76f897717d325b35,1551764016589,12,-4609.0,-8449.0,10239.0,0.0,0.0,0.0,0.0,0.0,0.0,0
76f897717d325b35,1551764016649,13,-4865.0,-8961.0,10495.0,0.0,0.0,0.0,0.0,0.0,0.0,0
76f897717d325b35,1551764016709,14,-4865.0,-8961.0,10239.0,0.0,0.0,0.0,0.0,0.0,0.0,0
76f897717d325b35,1551764016829,15,-4865.0,-8705.0,9983.0,0.0,0.0,0.0,0.0,0.0,0.0,0
76f897717d325b35,1551764016859,16,-4865.0,-8705.0,9983.0,0.0,0.0,0.0,0.0,0.0,0.0,0
76f897717d325b35,1551764016949,17,-4609.0,-8705.0,9727.0,0.0,0.0,0.0,0.0,0.0,0.0,0
76f897717d325b35,1551764016979,18,-4865.0,-9473.0,10239.0,0.0,0.0,0.0,0.0,0.0,0.0,0
76f897717d325b35,1551764017039,19,-4609.0,-8705.0,10495.0,0.0,0.0,0.0,0.0,0.0,0.0,0
76f897717d325b35,1551764017099,20,-4865.0,-8193.0,10495.0,0.0,0.0,0.0,0.0,0.0,0.0,0
76f897717d325b35,1551764017189,21,-4865.0,-7937.0,10751.0,0.0,0.0,0.0,0.0,0.0,0.0,0
76f897717d325b35,1551764017249,22,-4353.0,-8705.0,10495.0,0.0,0.0,0.0,0.0,0.0,0.0,0
76f897717d325b35,1551764017309,23,-5121.0,-8449.0,10751.0,0.0,0.0,0.0,0.0,0.0,0.0,0
76f897717d325b35,1551764017369,24,-5121.0,-8449.0,10495.0,0.0,0.0,0.0,0.0,0.0,0.0,0
76f897717d325b35,1551764017429,25,-5121.0,-8705.0,10239.0,0.0,0.0,0.0,0.0,0.0,0.0,0
76f897717d325b35,1551764017518,26,-5121.0,-8705.0,10239.0,0.0,0.0,0.0,0.0,0.0,0.0,0
76f897717d325b35,1551764017579,27,-5377.0,-8449.0,10751.0,0.0,0.0,0.0,0.0,0.0,0.0,0
76f897717d325b35,1551764017639,28,-4865.0,-8705.0,10495.0,0.0,0.0,0.0,0.0,0.0,0.0,0
76f897717d325b35,1551764017728,29,-4609.0,-8705.0,11007.0,0.0,0.0,0.0,0.0,0.0,0.0,0
76f897717d325b35,1551764017759,30,-4353.0,-8449.0,9983.0,0.0,0.0,0.0,0.0,0.0,0.0,0
76f897717d325b35,1551764017879,31,-4865.0,-9217.0,10239.0,0.0,0.0,0.0,0.0,0.0,0.0,0
76f897717d325b35,1551764017909,32,-4865.0,-8705.0,9983.0,0.0,0.0,0.0,0.0,0.0,0.0,0
76f897717d325b35,1551764017969,33,-4865.0,-8449.0,9727.0,0.0,0.0,0.0,0.0,0.0,0.0,0
76f897717d325b35,1551764018148,34,-4609.0,-8449.0,9983.0,0.0,0.0,0.0,0.0,0.0,0.0,0
76f897717d325b35,1551764018150,35,-4353.0,-9217.0,9471.0,0.0,0.0,0.0,0.0,0.0,0.0,0
76f897717d325b35,1551764018179,36,-4865.0,-8705.0,9471.0,0.0,0.0,0.0,0.0,0.0,0.0,0
76f897717d325b35,1551764018239,37,-4609.0,-9473.0,10495.0,0.0,0.0,0.0,0.0,0.0,0.0,0
76f897717d325b35,1551764018299,38,-4353.0,-8705.0,10751.0,0.0,0.0,0.0,0.0,0.0,0.0,0
76f897717d325b35,1551764018359,39,-4609.0,-7681.0,10239.0,0.0,0.0,0.0,0.0,0.0,0.0,0
76f897717d325b35,1551764018419,40,-4865.0,-8961.0,10751.0,0.0,0.0,0.0,0.0,0.0,0.0,0
76f897717d325b35,1551764018509,41,-4609.0,-8449.0,10495.0,0.0,0.0,0.0,0.0,0.0,0.0,0
76f897717d325b35,1551764018569,42,-5121.0,-8449.0,10495.0,0.0,0.0,0.0,0.0,0.0,0.0,0
76f897717d325b35,1551764018629,43,-4865.0,-8449.0,10239.0,0.0,0.0,0.0,0.0,0.0,0.0,0
76f897717d325b35,1551764018778,44,-5121.0,-8449.0,10495.0,0.0,0.0,0.0,0.0,0.0,0.0,0
76f897717d325b35,1551764018780,45,-5121.0,-8449.0,10239.0,0.0,0.0,0.0,0.0,0.0,0.0,0
76f897717d325b35,1551764018839,46,-5377.0,-8705.0,10239.0,0.0,0.0,0.0,0.0,0.0,0.0,0
76f897717d325b35,1551764018958,47,-5377.0,-9217.0,11007.0,0.0,0.0,0.0,0.0,0.0,0.0,0
76f897717d325b35,1551764018959,48,-4865.0,-8449.0,11007.0,0.0,0.0,0.0,0.0,0.0,0.0,0
76f897717d325b35,1551764019018,49,-4353.0,-7681.0,10495.0,0.0,0.0,0.0,0.0,0.0,0.0,0
76f897717d325b35,1551764019079,50,-5121.0,-8961.0,11007.0,0.0,0.0,0.0,0.0,0.0,0.0,0
76f897717d325b35,1551764019169,51,-4609.0,-8961.0,9983.0,0.0,0.0,0.0,0.0,0.0,0.0,0
76f897717d325b35,1551764019229,52,-4865.0,-8193.0,9983.0,0.0,0.0,0.0,0.0,0.0,0.0,0
76f897717d325b35,1551764019289,53,-4865.0,-8705.0,9727.0,0.0,0.0,0.0,0.0,0.0,0.0,0
76f897717d325b35,1551764019349,54,-5121.0,-8705.0,9727.0,0.0,0.0,0.0,0.0,0.0,0.0,0
76f897717d325b35,1551764019558,55,-4865.0,-8961.0,9471.0,0.0,0.0,0.0,0.0,0.0,0.0,0
76f897717d325b35,1551764019559,56,-4609.0,-9729.0,11007.0,0.0,0.0,0.0,0.0,0.0,0.0,0
76f897717d325b35,1551764019679,57,-4609.0,-7937.0,10751.0,0.0,0.0,0.0,0.0,0.0,0.0,0
76f897717d325b35,1551764019680,58,-4609.0,-7937.0,10495.0,0.0,0.0,0.0,0.0,0.0,0.0,0
76f897717d325b35,1551764019681,59,-4865.0,-8705.0,10495.0,0.0,0.0,0.0,0.0,0.0,0.0,0
76f897717d325b35,1551764019739,60,-5121.0,-8449.0,10239.0,0.0,0.0,0.0,0.0,0.0,0.0,0
76f897717d325b35,1551764020128,61,-4865.0,-8449.0,9983.0,0.0,0.0,0.0,0.0,0.0,0.0,0
76f897717d325b35,1551764020130,62,-5633.0,-8705.0,9983.0,0.0,0.0,0.0,0.0,0.0,0.0,0
76f897717d325b35,1551764020131,63,-5633.0,-8193.0,9983.0,0.0,0.0,0.0,0.0,0.0,0.0,0
76f897717d325b35,1551764020132,64,-4353.0,-9473.0,9983.0,0.0,0.0,0.0,0.0,0.0,0.0,0
76f897717d325b35,1551764020133,65,-4865.0,-8961.0,11263.0,0.0,0.0,0.0,0.0,0.0,0.0,0
76f897717d325b35,1551764020158,66,-4353.0,-7681.0,10239.0,0.0,0.0,0.0,0.0,0.0,0.0,0
76f897717d325b35,1551764020278,67,-5121.0,-8961.0,10495.0,0.0,0.0,0.0,0.0,0.0,0.0,0
76f897717d325b35,1551764020280,68,-4865.0,-8705.0,9983.0,0.0,0.0,0.0,0.0,0.0,0.0,0
76f897717d325b35,1551764020549,69,-5121.0,-8449.0,9983.0,0.0,0.0,0.0,0.0,0.0,0.0,0
76f897717d325b35,1551764020550,70,-5121.0,-8449.0,9983.0,0.0,0.0,0.0,0.0,0.0,0.0,0
76f897717d325b35,1551764020551,71,-5121.0,-8705.0,9471.0,0.0,0.0,0.0,0.0,0.0,0.0,0
76f897717d325b35,1551764020579,72,-5121.0,-9217.0,9727.0,0.0,0.0,0.0,0.0,0.0,0.0,0
76f897717d325b35,1551764020668,73,-4609.0,-9217.0,11263.0,0.0,0.0,0.0,0.0,0.0,0.0,0
76f897717d325b35,1551764020669,74,-3585.0,-6913.0,10495.0,0.0,0.0,0.0,0.0,0.0,0.0,0
76f897717d325b35,1551764020788,75,-5377.0,-8961.0,9983.0,0.0,0.0,0.0,0.0,0.0,0.0,0
76f897717d325b35,1551764020818,76,-5377.0,-8193.0,10495.0,0.0,0.0,0.0,0.0,0.0,0.0,0
76f897717d325b35,1551764020908,77,-4865.0,-8449.0,10239.0,0.0,0.0,0.0,0.0,0.0,0.0,0
76f897717d325b35,1551764020939,78,-5121.0,-8193.0,9983.0,0.0,0.0,0.0,0.0,0.0,0.0,0
76f897717d325b35,1551764021238,79,-5889.0,-8961.0,9727.0,0.0,0.0,0.0,0.0,0.0,0.0,0
76f897717d325b35,1551764021240,80,-5633.0,-8449.0,9983.0,0.0,0.0,0.0,0.0,0.0,0.0,0
76f897717d325b35,1551764021241,81,-5121.0,-9985.0,11519.0,0.0,0.0,0.0,0.0,0.0,0.0,0
76f897717d325b35,1551764021242,82,-4609.0,-8193.0,10751.0,0.0,0.0,0.0,0.0,0.0,0.0,0
76f897717d325b35,1551764021269,83,-4865.0,-8449.0,9983.0,0.0,0.0,0.0,0.0,0.0,0.0,0
76f897717d325b35,1551764021898,84,-5121.0,-8961.0,10239.0,0.0,0.0,0.0,0.0,0.0,0.0,0
76f897717d325b35,1551764021927,85,-5121.0,-8449.0,9727.0,0.0,0.0,0.0,0.0,0.0,0.0,0
76f897717d325b35,1551764021957,86,-4865.0,-8705.0,9471.0,0.0,0.0,0.0,0.0,0.0,0.0,0
76f897717d325b35,1551764022018,87,-5121.0,-8705.0,8959.0,0.0,0.0,0.0,0.0,0.0,0.0,0
76f897717d325b35,1551764022048,88,-4865.0,-8705.0,9215.0,0.0,0.0,0.0,0.0,0.0,0.0,0
76f897717d325b35,1551764022049,89,-4609.0,-10241.0,10239.0,0.0,0.0,0.0,0.0,0.0,0.0,0
76f897717d325b35,1551764022108,90,-5121.0,-8449.0,9983.0,0.0,0.0,0.0,0.0,0.0,0.0,0
76f897717d325b35,1551764022109,91,-6145.0,-9217.0,9727.0,0.0,0.0,0.0,0.0,0.0,0.0,0
76f897717d325b35,1551764022139,92,-5377.0,-8705.0,10239.0,0.0,0.0,0.0,0.0,0.0,0.0,0
76f897717d325b35,1551764022229,93,-4865.0,-9985.0,11263.0,0.0,0.0,0.0,0.0,0.0,0.0,0
76f897717d325b35,1551764022259,94,-4353.0,-8449.0,10495.0,0.0,0.0,0.0,0.0,0.0,0.0,0
76f897717d325b35,1551764022438,95,-5633.0,-8705.0,10239.0,0.0,0.0,0.0,0.0,0.0,0.0,0
76f897717d325b35,1551764022468,96,-5121.0,-8449.0,9983.0,0.0,0.0,0.0,0.0,0.0,0.0,0
76f897717d325b35,1551764022469,97,-4865.0,-8193.0,9983.0,0.0,0.0,0.0,0.0,0.0,0.0,0
76f897717d325b35,1551764022529,98,-4865.0,-8705.0,9983.0,0.0,0.0,0.0,0.0,0.0,0.0,0
76f897717d325b35,1551764022589,99,-4865.0,-8961.0,9727.0,0.0,0.0,0.0,0.0,0.0,0.0,0
76f897717d325b35,1551764022679,100,-4865.0,-9729.0,10239.0,0.0,0.0,0.0,0.0,0.0,0.0,0
76f897717d325b35,1551764022709,101,-4097.0,-8961.0,10239.0,0.0,0.0,0.0,0.0,0.0,0.0,0
76f897717d325b35,1551764022948,102,-5377.0,-7937.0,10495.0,0.0,0.0,0.0,0.0,0.0,0.0,0
76f897717d325b35,1551764022949,103,-4865.0,-8961.0,10751.0,0.0,0.0,0.0,0.0,0.0,0.0,0
76f897717d325b35,1551764022951,104,-5121.0,-8193.0,10495.0,0.0,0.0,0.0,0.0,0.0,0.0,0
76f897717d325b35,1551764022979,105,-4865.0,-8193.0,10495.0,0.0,0.0,0.0,0.0,0.0,0.0,0
76f897717d325b35,1551764023038,106,-5121.0,-8449.0,9983.0,0.0,0.0,0.0,0.0,0.0,0.0,0
76f897717d325b35,1551764023398,107,-5889.0,-8705.0,9983.0,0.0,0.0,0.0,0.0,0.0,0.0,0
76f897717d325b35,1551764023399,108,-5377.0,-9473.0,11007.0,0.0,0.0,0.0,0.0,0.0,0.0,0
76f897717d325b35,1551764023401,109,-4609.0,-8193.0,11263.0,0.0,0.0,0.0,0.0,0.0,0.0,0
76f897717d325b35,1551764023402,110,-4609.0,-8193.0,10239.0,0.0,0.0,0.0,0.0,0.0,0.0,0
76f897717d325b35,1551764023403,111,-5377.0,-8961.0,10751.0,0.0,0.0,0.0,0.0,0.0,0.0,0
76f897717d325b35,1551764023489,112,-4865.0,-8449.0,9983.0,0.0,0.0,0.0,0.0,0.0,0.0,0
76f897717d325b35,1551764023518,113,-5121.0,-8193.0,9983.0,0.0,0.0,0.0,0.0,0.0,0.0,0
76f897717d325b35,1551764023609,114,-4865.0,-8961.0,9727.0,0.0,0.0,0.0,0.0,0.0,0.0,0
76f897717d325b35,1551764023788,115,-4609.0,-8961.0,9983.0,0.0,0.0,0.0,0.0,0.0,0.0,0
76f897717d325b35,1551764023790,116,-5121.0,-8961.0,9215.0,0.0,0.0,0.0,0.0,0.0,0.0,0
76f897717d325b35,1551764023791,117,-4353.0,-9729.0,10751.0,0.0,0.0,0.0,0.0,0.0,0.0,0
76f897717d325b35,1551764023849,118,-4865.0,-7681.0,10495.0,0.0,0.0,0.0,0.0,0.0,0.0,0
76f897717d325b35,1551764023909,119,-4865.0,-8705.0,10751.0,0.0,0.0,0.0,0.0,0.0,0.0,0
76f897717d325b35,1551764024058,120,-4865.0,-8449.0,10239.0,0.0,0.0,0.0,0.0,0.0,0.0,0
76f897717d325b35,1551764024060,121,-4865.0,-8449.0,10495.0,0.0,0.0,0.0,0.0,0.0,0.0,0
76f897717d325b35,1551764024118,122,-4609.0,-8449.0,10239.0,0.0,0.0,0.0,0.0,0.0,0.0,0
76f897717d325b35,1551764024568,123,-5633.0,-8705.0,9983.0,0.0,0.0,0.0,0.0,0.0,0.0,0
76f897717d325b35,1551764024569,124,-5889.0,-8449.0,9983.0,0.0,0.0,0.0,0.0,0.0,0.0,0
