2562-03-05 111830,,,,,,,,,,,,
Start Time,2562/03/05 11:18:30,Timestamp,1551759510352,,,,,,,,,
sensor ID,timestamp (ms),Sample Count,acc_x,acc_y,acc_z,gyro_x,gyro_y,gyro_z,mag_x,mag_y,mag_z,mark
198063d93970f3b4,1551759510386,0,-6913.0,-6401.0,5631.0,0.0,0.0,0.0,0.0,0.0,0.0,0
198063d93970f3b4,1551759510396,1,-6913.0,-6401.0,5631.0,0.0,0.0,0.0,0.0,0.0,0.0,0
198063d93970f3b4,1551759510476,2,-6913.0,-6401.0,5631.0,0.0,0.0,0.0,0.0,0.0,0.0,0
198063d93970f3b4,1551759510536,3,-6913.0,-6401.0,5631.0,0.0,0.0,0.0,0.0,0.0,0.0,0
198063d93970f3b4,1551759510596,4,-6913.0,-6401.0,5631.0,0.0,0.0,0.0,0.0,0.0,0.0,0
198063d93970f3b4,1551759510656,5,-6913.0,-6657.0,5631.0,0.0,0.0,0.0,0.0,0.0,0.0,0
198063d93970f3b4,1551759510717,6,-6913.0,-6401.0,5631.0,0.0,0.0,0.0,0.0,0.0,0.0,0
198063d93970f3b4,1551759510806,7,-6913.0,-6401.0,5631.0,0.0,0.0,0.0,0.0,0.0,0.0,0
198063d93970f3b4,1551759510866,8,-6913.0,-6401.0,5631.0,0.0,0.0,0.0,0.0,0.0,0.0,0
198063d93970f3b4,1551759510926,9,-6913.0,-6401.0,5631.0,0.0,0.0,0.0,0.0,0.0,0.0,0
198063d93970f3b4,1551759510987,10,-6913.0,-6657.0,5631.0,0.0,0.0,0.0,0.0,0.0,0.0,0
198063d93970f3b4,1551759511048,11,-6145.0,-6913.0,5631.0,0.0,0.0,0.0,0.0,0.0,0.0,0
198063d93970f3b4,1551759511137,12,-6657.0,-6913.0,5887.0,0.0,0.0,0.0,0.0,0.0,0.0,0
198063d93970f3b4,1551759511197,13,-6657.0,-7169.0,5375.0,0.0,0.0,0.0,0.0,0.0,0.0,0
198063d93970f3b4,1551759511257,14,-6913.0,-7169.0,6143.0,0.0,0.0,0.0,0.0,0.0,0.0,0
198063d93970f3b4,1551759511317,15,-6657.0,-6913.0,6143.0,0.0,0.0,0.0,0.0,0.0,0.0,0
198063d93970f3b4,1551759511377,16,-6913.0,-7425.0,6399.0,0.0,0.0,0.0,0.0,0.0,0.0,0
198063d93970f3b4,1551759511467,17,-6913.0,-7937.0,6143.0,0.0,0.0,0.0,0.0,0.0,0.0,0
198063d93970f3b4,1551759511527,18,-6657.0,-7425.0,6143.0,0.0,0.0,0.0,0.0,0.0,0.0,0
198063d93970f3b4,1551759511587,19,-6657.0,-7169.0,6655.0,0.0,0.0,0.0,0.0,0.0,0.0,0
198063d93970f3b4,1551759511647,20,-6913.0,-7425.0,6911.0,0.0,0.0,0.0,0.0,0.0,0.0,0
198063d93970f3b4,1551759511707,21,-6657.0,-8193.0,6399.0,0.0,0.0,0.0,0.0,0.0,0.0,0
198063d93970f3b4,1551759511797,22,-7169.0,-7937.0,6911.0,0.0,0.0,0.0,0.0,0.0,0.0,0
198063d93970f3b4,1551759511798,23,-7169.0,-7937.0,6911.0,0.0,0.0,0.0,0.0,0.0,0.0,0
198063d93970f3b4,1551759511857,24,-7425.0,-7937.0,7679.0,0.0,0.0,0.0,0.0,0.0,0.0,0
198063d93970f3b4,1551759511917,25,-7169.0,-7425.0,7935.0,0.0,0.0,0.0,0.0,0.0,0.0,0
198063d93970f3b4,1551759511978,26,-7425.0,-8449.0,7935.0,0.0,0.0,0.0,0.0,0.0,0.0,0
198063d93970f3b4,1551759512037,27,-7169.0,-7425.0,9215.0,0.0,0.0,0.0,0.0,0.0,0.0,0
198063d93970f3b4,1551759512127,28,-7425.0,-8193.0,9215.0,0.0,0.0,0.0,0.0,0.0,0.0,0
198063d93970f3b4,1551759512187,29,-7425.0,-8193.0,9983.0,0.0,0.0,0.0,0.0,0.0,0.0,0
198063d93970f3b4,1551759512247,30,-7425.0,-8193.0,9471.0,0.0,0.0,0.0,0.0,0.0,0.0,0
198063d93970f3b4,1551759512307,31,-7169.0,-7937.0,9727.0,0.0,0.0,0.0,0.0,0.0,0.0,0
198063d93970f3b4,1551759512367,32,-7169.0,-8449.0,9983.0,0.0,0.0,0.0,0.0,0.0,0.0,0
198063d93970f3b4,1551759512457,33,-7937.0,-8449.0,9215.0,0.0,0.0,0.0,0.0,0.0,0.0,0
198063d93970f3b4,1551759512517,34,-7425.0,-8193.0,9983.0,0.0,0.0,0.0,0.0,0.0,0.0,0
198063d93970f3b4,1551759512577,35,-7425.0,-8449.0,8959.0,0.0,0.0,0.0,0.0,0.0,0.0,0
198063d93970f3b4,1551759512637,36,-7425.0,-7937.0,9471.0,0.0,0.0,0.0,0.0,0.0,0.0,0
198063d93970f3b4,1551759512697,37,-7425.0,-7937.0,9471.0,0.0,0.0,0.0,0.0,0.0,0.0,0
198063d93970f3b4,1551759512787,38,-7681.0,-7937.0,9471.0,0.0,0.0,0.0,0.0,0.0,0.0,0
198063d93970f3b4,1551759512847,39,-7681.0,-8193.0,9471.0,0.0,0.0,0.0,0.0,0.0,0.0,0
198063d93970f3b4,1551759512907,40,-7425.0,-7937.0,9215.0,0.0,0.0,0.0,0.0,0.0,0.0,0
198063d93970f3b4,1551759512967,41,-7681.0,-7937.0,9215.0,0.0,0.0,0.0,0.0,0.0,0.0,0
198063d93970f3b4,1551759513027,42,-7681.0,-7937.0,9471.0,0.0,0.0,0.0,0.0,0.0,0.0,0
198063d93970f3b4,1551759513117,43,-7681.0,-8193.0,9215.0,0.0,0.0,0.0,0.0,0.0,0.0,0
198063d93970f3b4,1551759513177,44,-7937.0,-8193.0,9471.0,0.0,0.0,0.0,0.0,0.0,0.0,0
198063d93970f3b4,1551759513237,45,-7425.0,-7937.0,9215.0,0.0,0.0,0.0,0.0,0.0,0.0,0
198063d93970f3b4,1551759513297,46,-7681.0,-7937.0,9471.0,0.0,0.0,0.0,0.0,0.0,0.0,0
198063d93970f3b4,1551759513357,47,-7681.0,-7937.0,9215.0,0.0,0.0,0.0,0.0,0.0,0.0,0
198063d93970f3b4,1551759513447,48,-6913.0,-8449.0,9215.0,0.0,0.0,0.0,0.0,0.0,0.0,0
198063d93970f3b4,1551759513507,49,-7681.0,-8193.0,9471.0,0.0,0.0,0.0,0.0,0.0,0.0,0
198063d93970f3b4,1551759513567,50,-7425.0,-8193.0,9215.0,0.0,0.0,0.0,0.0,0.0,0.0,0
198063d93970f3b4,1551759513627,51,-7425.0,-8193.0,9215.0,0.0,0.0,0.0,0.0,0.0,0.0,0
198063d93970f3b4,1551759513687,52,-7425.0,-8193.0,9215.0,0.0,0.0,0.0,0.0,0.0,0.0,0
198063d93970f3b4,1551759513777,53,-7425.0,-8193.0,9215.0,0.0,0.0,0.0,0.0,0.0,0.0,0
198063d93970f3b4,1551759513837,54,-7425.0,-8193.0,9215.0,0.0,0.0,0.0,0.0,0.0,0.0,0
198063d93970f3b4,1551759513897,55,-7425.0,-8193.0,9215.0,0.0,0.0,0.0,0.0,0.0,0.0,0
198063d93970f3b4,1551759513957,56,-7425.0,-8193.0,9215.0,0.0,0.0,0.0,0.0,0.0,0.0,0
198063d93970f3b4,1551759514017,57,-7425.0,-8193.0,9215.0,0.0,0.0,0.0,0.0,0.0,0.0,0
198063d93970f3b4,1551759514107,58,-7425.0,-8193.0,9215.0,0.0,0.0,0.0,0.0,0.0,0.0,0
198063d93970f3b4,1551759514167,59,-7425.0,-8193.0,9215.0,0.0,0.0,0.0,0.0,0.0,0.0,0
198063d93970f3b4,1551759514227,60,-7425.0,-8193.0,9471.0,0.0,0.0,0.0,0.0,0.0,0.0,0
198063d93970f3b4,1551759514287,61,-7425.0,-8193.0,9471.0,0.0,0.0,0.0,0.0,0.0,0.0,0
198063d93970f3b4,1551759514347,62,-7425.0,-8193.0,9471.0,0.0,0.0,0.0,0.0,0.0,0.0,0
198063d93970f3b4,1551759514437,63,-7425.0,-8193.0,9471.0,0.0,0.0,0.0,0.0,0.0,0.0,0
198063d93970f3b4,1551759514497,64,-7425.0,-8193.0,9471.0,0.0,0.0,0.0,0.0,0.0,0.0,0
198063d93970f3b4,1551759514557,65,-7425.0,-8193.0,9215.0,0.0,0.0,0.0,0.0,0.0,0.0,0
198063d93970f3b4,1551759514617,66,-7425.0,-8193.0,9471.0,0.0,0.0,0.0,0.0,0.0,0.0,0
198063d93970f3b4,1551759514677,67,-7425.0,-8193.0,9215.0,0.0,0.0,0.0,0.0,0.0,0.0,0
198063d93970f3b4,1551759514767,68,-7425.0,-8193.0,9215.0,0.0,0.0,0.0,0.0,0.0,0.0,0
198063d93970f3b4,1551759514827,69,-7425.0,-8193.0,9471.0,0.0,0.0,0.0,0.0,0.0,0.0,0
198063d93970f3b4,1551759514887,70,-7425.0,-8193.0,9215.0,0.0,0.0,0.0,0.0,0.0,0.0,0
198063d93970f3b4,1551759514947,71,-7425.0,-8193.0,9215.0,0.0,0.0,0.0,0.0,0.0,0.0,0
198063d93970f3b4,1551759515007,72,-7425.0,-8193.0,9215.0,0.0,0.0,0.0,0.0,0.0,0.0,0
198063d93970f3b4,1551759515097,73,-7425.0,-8193.0,9215.0,0.0,0.0,0.0,0.0,0.0,0.0,0
198063d93970f3b4,1551759515158,74,-7425.0,-8193.0,9215.0,0.0,0.0,0.0,0.0,0.0,0.0,0
198063d93970f3b4,1551759515217,75,-7425.0,-8193.0,9215.0,0.0,0.0,0.0,0.0,0.0,0.0,0
198063d93970f3b4,1551759515277,76,-7425.0,-8193.0,9215.0,0.0,0.0,0.0,0.0,0.0,0.0,0
198063d93970f3b4,1551759515337,77,-7169.0,-8193.0,9215.0,0.0,0.0,0.0,0.0,0.0,0.0,0
198063d93970f3b4,1551759515427,78,-7425.0,-8193.0,9215.0,0.0,0.0,0.0,0.0,0.0,0.0,0
198063d93970f3b4,1551759515487,79,-7425.0,-8193.0,9215.0,0.0,0.0,0.0,0.0,0.0,0.0,0
198063d93970f3b4,1551759515548,80,-7169.0,-8193.0,9215.0,0.0,0.0,0.0,0.0,0.0,0.0,0
198063d93970f3b4,1551759515607,81,-7169.0,-8193.0,9215.0,0.0,0.0,0.0,0.0,0.0,0.0,0
198063d93970f3b4,1551759515667,82,-7169.0,-8449.0,9215.0,0.0,0.0,0.0,0.0,0.0,0.0,0
198063d93970f3b4,1551759515757,83,-7169.0,-8193.0,9215.0,0.0,0.0,0.0,0.0,0.0,0.0,0
198063d93970f3b4,1551759515817,84,-7169.0,-8193.0,9215.0,0.0,0.0,0.0,0.0,0.0,0.0,0
198063d93970f3b4,1551759515877,85,-7169.0,-8449.0,9471.0,0.0,0.0,0.0,0.0,0.0,0.0,0
198063d93970f3b4,1551759515937,86,-7169.0,-8449.0,9215.0,0.0,0.0,0.0,0.0,0.0,0.0,0
198063d93970f3b4,1551759515997,87,-6913.0,-7937.0,9983.0,0.0,0.0,0.0,0.0,0.0,0.0,0
198063d93970f3b4,1551759516087,88,-7169.0,-8449.0,9215.0,0.0,0.0,0.0,0.0,0.0,0.0,0
198063d93970f3b4,1551759516147,89,-7169.0,-8449.0,9215.0,0.0,0.0,0.0,0.0,0.0,0.0,0
198063d93970f3b4,1551759516207,90,-7169.0,-8449.0,9215.0,0.0,0.0,0.0,0.0,0.0,0.0,0
198063d93970f3b4,1551759516267,91,-7169.0,-8449.0,9215.0,0.0,0.0,0.0,0.0,0.0,0.0,0
198063d93970f3b4,1551759516327,92,-7169.0,-8449.0,9215.0,0.0,0.0,0.0,0.0,0.0,0.0,0
198063d93970f3b4,1551759516417,93,-7169.0,-8449.0,9215.0,0.0,0.0,0.0,0.0,0.0,0.0,0
198063d93970f3b4,1551759516477,94,-7169.0,-8449.0,9215.0,0.0,0.0,0.0,0.0,0.0,0.0,0
198063d93970f3b4,1551759516537,95,-7169.0,-8449.0,9215.0,0.0,0.0,0.0,0.0,0.0,0.0,0
198063d93970f3b4,1551759516597,96,-7169.0,-8449.0,9215.0,0.0,0.0,0.0,0.0,0.0,0.0,0
198063d93970f3b4,1551759516657,97,-7169.0,-8449.0,9215.0,0.0,0.0,0.0,0.0,0.0,0.0,0
198063d93970f3b4,1551759516747,98,-7169.0,-8449.0,9215.0,0.0,0.0,0.0,0.0,0.0,0.0,0
198063d93970f3b4,1551759516807,99,-7169.0,-8449.0,9215.0,0.0,0.0,0.0,0.0,0.0,0.0,0
198063d93970f3b4,1551759516867,100,-7169.0,-8449.0,9215.0,0.0,0.0,0.0,0.0,0.0,0.0,0
198063d93970f3b4,1551759516927,101,-7169.0,-8449.0,9215.0,0.0,0.0,0.0,0.0,0.0,0.0,0
198063d93970f3b4,1551759516987,102,-7169.0,-8449.0,9471.0,0.0,0.0,0.0,0.0,0.0,0.0,0
198063d93970f3b4,1551759517077,103,-7169.0,-8449.0,9215.0,0.0,0.0,0.0,0.0,0.0,0.0,0
198063d93970f3b4,1551759517137,104,-7169.0,-8449.0,9215.0,0.0,0.0,0.0,0.0,0.0,0.0,0
198063d93970f3b4,1551759517197,105,-7169.0,-8449.0,9215.0,0.0,0.0,0.0,0.0,0.0,0.0,0
198063d93970f3b4,1551759517257,106,-7169.0,-8449.0,9215.0,0.0,0.0,0.0,0.0,0.0,0.0,0
198063d93970f3b4,1551759517347,107,-7169.0,-8449.0,9215.0,0.0,0.0,0.0,0.0,0.0,0.0,0
198063d93970f3b4,1551759517407,108,-7169.0,-8449.0,9215.0,0.0,0.0,0.0,0.0,0.0,0.0,0
198063d93970f3b4,1551759517467,109,-7169.0,-8449.0,9215.0,0.0,0.0,0.0,0.0,0.0,0.0,0
198063d93970f3b4,1551759517527,110,-7169.0,-8449.0,9471.0,0.0,0.0,0.0,0.0,0.0,0.0,0
198063d93970f3b4,1551759517587,111,-7169.0,-8449.0,9471.0,0.0,0.0,0.0,0.0,0.0,0.0,0
198063d93970f3b4,1551759517677,112,-7169.0,-8449.0,9215.0,0.0,0.0,0.0,0.0,0.0,0.0,0
198063d93970f3b4,1551759517737,113,-7169.0,-8449.0,9471.0,0.0,0.0,0.0,0.0,0.0,0.0,0
198063d93970f3b4,1551759517797,114,-7169.0,-8449.0,9215.0,0.0,0.0,0.0,0.0,0.0,0.0,0
198063d93970f3b4,1551759517857,115,-7169.0,-8449.0,9471.0,0.0,0.0,0.0,0.0,0.0,0.0,0
198063d93970f3b4,1551759517917,116,-7169.0,-8193.0,9471.0,0.0,0.0,0.0,0.0,0.0,0.0,0
198063d93970f3b4,1551759518007,117,-7169.0,-8449.0,9215.0,0.0,0.0,0.0,0.0,0.0,0.0,0
198063d93970f3b4,1551759518067,118,-7169.0,-8449.0,9471.0,0.0,0.0,0.0,0.0,0.0,0.0,0
198063d93970f3b4,1551759518127,119,-7169.0,-8449.0,9215.0,0.0,0.0,0.0,0.0,0.0,0.0,0
198063d93970f3b4,1551759518187,120,-7169.0,-8449.0,9471.0,0.0,0.0,0.0,0.0,0.0,0.0,0
198063d93970f3b4,1551759518247,121,-7169.0,-8449.0,9215.0,0.0,0.0,0.0,0.0,0.0,0.0,0
198063d93970f3b4,1551759518337,122,-7169.0,-8449.0,9471.0,0.0,0.0,0.0,0.0,0.0,0.0,0
198063d93970f3b4,1551759518397,123,-7169.0,-8449.0,9471.0,0.0,0.0,0.0,0.0,0.0,0.0,0
198063d93970f3b4,1551759518457,124,-7169.0,-8449.0,9215.0,0.0,0.0,0.0,0.0,0.0,0.0,0
198063d93970f3b4,1551759518517,125,-7169.0,-8449.0,9471.0,0.0,0.0,0.0,0.0,0.0,0.0,0
198063d93970f3b4,1551759518577,126,-7169.0,-8193.0,9471.0,0.0,0.0,0.0,0.0,0.0,0.0,0
198063d93970f3b4,1551759518667,127,-7169.0,-8449.0,9215.0,0.0,0.0,0.0,0.0,0.0,0.0,0
198063d93970f3b4,1551759518727,128,-7169.0,-8449.0,9215.0,0.0,0.0,0.0,0.0,0.0,0.0,0
198063d93970f3b4,1551759518787,129,-7169.0,-8449.0,9471.0,0.0,0.0,0.0,0.0,0.0,0.0,0
198063d93970f3b4,1551759518847,130,-7169.0,-8449.0,9471.0,0.0,0.0,0.0,0.0,0.0,0.0,0
198063d93970f3b4,1551759518907,131,-7169.0,-8449.0,9215.0,0.0,0.0,0.0,0.0,0.0,0.0,0
198063d93970f3b4,1551759518997,132,-7169.0,-8449.0,9215.0,0.0,0.0,0.0,0.0,0.0,0.0,0
198063d93970f3b4,1551759519057,133,-7169.0,-8449.0,9471.0,0.0,0.0,0.0,0.0,0.0,0.0,0
198063d93970f3b4,1551759519117,134,-7169.0,-8449.0,9215.0,0.0,0.0,0.0,0.0,0.0,0.0,0
198063d93970f3b4,1551759519177,135,-7169.0,-8449.0,9215.0,0.0,0.0,0.0,0.0,0.0,0.0,0
198063d93970f3b4,1551759519237,136,-7169.0,-8449.0,9471.0,0.0,0.0,0.0,0.0,0.0,0.0,0
198063d93970f3b4,1551759519326,137,-7169.0,-8449.0,9215.0,0.0,0.0,0.0,0.0,0.0,0.0,0
198063d93970f3b4,1551759519387,138,-7169.0,-8449.0,9215.0,0.0,0.0,0.0,0.0,0.0,0.0,0
198063d93970f3b4,1551759519447,139,-7169.0,-8449.0,9215.0,0.0,0.0,0.0,0.0,0.0,0.0,0
198063d93970f3b4,1551759519507,140,-7169.0,-8449.0,9215.0,0.0,0.0,0.0,0.0,0.0,0.0,0
198063d93970f3b4,1551759519567,141,-7169.0,-8449.0,9215.0,0.0,0.0,0.0,0.0,0.0,0.0,0
198063d93970f3b4,1551759519657,142,-6913.0,-8449.0,9215.0,0.0,0.0,0.0,0.0,0.0,0.0,0
198063d93970f3b4,1551759519717,143,-7169.0,-8449.0,9215.0,0.0,0.0,0.0,0.0,0.0,0.0,0
198063d93970f3b4,1551759519777,144,-7169.0,-8449.0,9215.0,0.0,0.0,0.0,0.0,0.0,0.0,0
198063d93970f3b4,1551759519837,145,-6913.0,-8449.0,9215.0,0.0,0.0,0.0,0.0,0.0,0.0,0
198063d93970f3b4,1551759519897,146,-6913.0,-8449.0,9215.0,0.0,0.0,0.0,0.0,0.0,0.0,0
198063d93970f3b4,1551759519987,147,-7169.0,-8449.0,9215.0,0.0,0.0,0.0,0.0,0.0,0.0,0
198063d93970f3b4,1551759520047,148,-6913.0,-8449.0,9215.0,0.0,0.0,0.0,0.0,0.0,0.0,0
198063d93970f3b4,1551759520107,149,-7169.0,-8449.0,9215.0,0.0,0.0,0.0,0.0,0.0,0.0,0
198063d93970f3b4,1551759520167,150,-6913.0,-8449.0,9215.0,0.0,0.0,0.0,0.0,0.0,0.0,0
198063d93970f3b4,1551759520227,151,-6913.0,-8449.0,9215.0,0.0,0.0,0.0,0.0,0.0,0.0,0
198063d93970f3b4,1551759520326,152,-6913.0,-8449.0,9215.0,0.0,0.0,0.0,0.0,0.0,0.0,0
198063d93970f3b4,1551759520376,153,-6913.0,-8449.0,9215.0,0.0,0.0,0.0,0.0,0.0,0.0,0
198063d93970f3b4,1551759520436,154,-6913.0,-8449.0,9215.0,0.0,0.0,0.0,0.0,0.0,0.0,0
198063d93970f3b4,1551759520496,155,-6913.0,-8449.0,9215.0,0.0,0.0,0.0,0.0,0.0,0.0,0
198063d93970f3b4,1551759520556,156,-7169.0,-8449.0,9215.0,0.0,0.0,0.0,0.0,0.0,0.0,0
198063d93970f3b4,1551759520646,157,-6913.0,-8449.0,9215.0,0.0,0.0,0.0,0.0,0.0,0.0,0
198063d93970f3b4,1551759520707,158,-6913.0,-8193.0,9727.0,0.0,0.0,0.0,0.0,0.0,0.0,0
198063d93970f3b4,1551759520767,159,-6913.0,-8449.0,9215.0,0.0,0.0,0.0,0.0,0.0,0.0,0
198063d93970f3b4,1551759520827,160,-6913.0,-8449.0,9215.0,0.0,0.0,0.0,0.0,0.0,0.0,0
198063d93970f3b4,1551759520887,161,-6913.0,-8449.0,9215.0,0.0,0.0,0.0,0.0,0.0,0.0,0
198063d93970f3b4,1551759520977,162,-6913.0,-8449.0,9215.0,0.0,0.0,0.0,0.0,0.0,0.0,0
198063d93970f3b4,1551759521037,163,-6913.0,-8449.0,9215.0,0.0,0.0,0.0,0.0,0.0,0.0,0
198063d93970f3b4,1551759521097,164,-6913.0,-8449.0,9215.0,0.0,0.0,0.0,0.0,0.0,0.0,0
198063d93970f3b4,1551759521157,165,-6913.0,-8449.0,9215.0,0.0,0.0,0.0,0.0,0.0,0.0,0
198063d93970f3b4,1551759521217,166,-6913.0,-8449.0,9215.0,0.0,0.0,0.0,0.0,0.0,0.0,0
198063d93970f3b4,1551759521307,167,-6913.0,-8449.0,9215.0,0.0,0.0,0.0,0.0,0.0,0.0,0
198063d93970f3b4,1551759521367,168,-6913.0,-8449.0,9215.0,0.0,0.0,0.0,0.0,0.0,0.0,0
198063d93970f3b4,1551759521427,169,-6913.0,-8449.0,9215.0,0.0,0.0,0.0,0.0,0.0,0.0,0
198063d93970f3b4,1551759521487,170,-6913.0,-8449.0,9215.0,0.0,0.0,0.0,0.0,0.0,0.0,0
198063d93970f3b4,1551759521547,171,-6913.0,-8449.0,9215.0,0.0,0.0,0.0,0.0,0.0,0.0,0
198063d93970f3b4,1551759521637,172,-6913.0,-8449.0,9215.0,0.0,0.0,0.0,0.0,0.0,0.0,0
198063d93970f3b4,1551759521697,173,-6913.0,-8449.0,9215.0,0.0,0.0,0.0,0.0,0.0,0.0,0
198063d93970f3b4,1551759521757,174,-6913.0,-8449.0,9215.0,0.0,0.0,0.0,0.0,0.0,0.0,0
198063d93970f3b4,1551759521817,175,-6913.0,-8449.0,9215.0,0.0,0.0,0.0,0.0,0.0,0.0,0
198063d93970f3b4,1551759521877,176,-7169.0,-8449.0,9215.0,0.0,0.0,0.0,0.0,0.0,0.0,0
198063d93970f3b4,1551759521967,177,-6657.0,-8449.0,9215.0,0.0,0.0,0.0,0.0,0.0,0.0,0
198063d93970f3b4,1551759522027,178,-6657.0,-8449.0,9215.0,0.0,0.0,0.0,0.0,0.0,0.0,0
198063d93970f3b4,1551759522087,179,-6657.0,-8449.0,9215.0,0.0,0.0,0.0,0.0,0.0,0.0,0
198063d93970f3b4,1551759522147,180,-6657.0,-8449.0,9215.0,0.0,0.0,0.0,0.0,0.0,0.0,0
198063d93970f3b4,1551759522207,181,-6657.0,-8449.0,9215.0,0.0,0.0,0.0,0.0,0.0,0.0,0
198063d93970f3b4,1551759522297,182,-6657.0,-8961.0,7935.0,0.0,0.0,0.0,0.0,0.0,0.0,0
198063d93970f3b4,1551759522358,183,-6657.0,-8449.0,9215.0,0.0,0.0,0.0,0.0,0.0,0.0,0
198063d93970f3b4,1551759522417,184,-6657.0,-8449.0,9215.0,0.0,0.0,0.0,0.0,0.0,0.0,0
198063d93970f3b4,1551759522477,185,-6657.0,-8449.0,9215.0,0.0,0.0,0.0,0.0,0.0,0.0,0
198063d93970f3b4,1551759522537,186,-6657.0,-8449.0,9215.0,0.0,0.0,0.0,0.0,0.0,0.0,0
198063d93970f3b4,1551759522627,187,-6657.0,-8449.0,9471.0,0.0,0.0,0.0,0.0,0.0,0.0,0
198063d93970f3b4,1551759522687,188,-6657.0,-8449.0,9471.0,0.0,0.0,0.0,0.0,0.0,0.0,0
198063d93970f3b4,1551759522747,189,-6657.0,-8449.0,9215.0,0.0,0.0,0.0,0.0,0.0,0.0,0
198063d93970f3b4,1551759522810,190,-6657.0,-8449.0,9215.0,0.0,0.0,0.0,0.0,0.0,0.0,0
198063d93970f3b4,1551759522866,191,-6657.0,-8449.0,9215.0,0.0,0.0,0.0,0.0,0.0,0.0,0
198063d93970f3b4,1551759522956,192,-6657.0,-8449.0,9471.0,0.0,0.0,0.0,0.0,0.0,0.0,0
198063d93970f3b4,1551759523016,193,-6657.0,-8449.0,9471.0,0.0,0.0,0.0,0.0,0.0,0.0,0
198063d93970f3b4,1551759523076,194,-6657.0,-8449.0,9471.0,0.0,0.0,0.0,0.0,0.0,0.0,0
198063d93970f3b4,1551759523136,195,-6657.0,-8449.0,9471.0,0.0,0.0,0.0,0.0,0.0,0.0,0
198063d93970f3b4,1551759523196,196,-6657.0,-8449.0,9215.0,0.0,0.0,0.0,0.0,0.0,0.0,0
198063d93970f3b4,1551759523287,197,-6657.0,-8449.0,9471.0,0.0,0.0,0.0,0.0,0.0,0.0,0
198063d93970f3b4,1551759523347,198,-6657.0,-8449.0,9471.0,0.0,0.0,0.0,0.0,0.0,0.0,0
198063d93970f3b4,1551759523407,199,-6657.0,-8449.0,9471.0,0.0,0.0,0.0,0.0,0.0,0.0,0
198063d93970f3b4,1551759523467,200,-6657.0,-8449.0,9471.0,0.0,0.0,0.0,0.0,0.0,0.0,0
198063d93970f3b4,1551759523527,201,-6657.0,-8449.0,9471.0,0.0,0.0,0.0,0.0,0.0,0.0,0
198063d93970f3b4,1551759523617,202,-6657.0,-8449.0,9471.0,0.0,0.0,0.0,0.0,0.0,0.0,0
198063d93970f3b4,1551759523677,203,-6657.0,-8449.0,9471.0,0.0,0.0,0.0,0.0,0.0,0.0,0
198063d93970f3b4,1551759523737,204,-6657.0,-8449.0,9471.0,0.0,0.0,0.0,0.0,0.0,0.0,0
198063d93970f3b4,1551759523797,205,-6657.0,-8449.0,9471.0,0.0,0.0,0.0,0.0,0.0,0.0,0
198063d93970f3b4,1551759523857,206,-6657.0,-8449.0,9471.0,0.0,0.0,0.0,0.0,0.0,0.0,0
198063d93970f3b4,1551759523947,207,-6657.0,-8449.0,9471.0,0.0,0.0,0.0,0.0,0.0,0.0,0
198063d93970f3b4,1551759524007,208,-6657.0,-8449.0,9471.0,0.0,0.0,0.0,0.0,0.0,0.0,0
198063d93970f3b4,1551759524067,209,-6657.0,-8449.0,9471.0,0.0,0.0,0.0,0.0,0.0,0.0,0
198063d93970f3b4,1551759524127,210,-6657.0,-8449.0,9471.0,0.0,0.0,0.0,0.0,0.0,0.0,0
198063d93970f3b4,1551759524187,211,-6657.0,-8449.0,9471.0,0.0,0.0,0.0,0.0,0.0,0.0,0
198063d93970f3b4,1551759524277,212,-6657.0,-8449.0,9471.0,0.0,0.0,0.0,0.0,0.0,0.0,0
198063d93970f3b4,1551759524337,213,-6657.0,-8449.0,9471.0,0.0,0.0,0.0,0.0,0.0,0.0,0
198063d93970f3b4,1551759524397,214,-6657.0,-8449.0,9471.0,0.0,0.0,0.0,0.0,0.0,0.0,0
198063d93970f3b4,1551759524457,215,-6657.0,-8449.0,9471.0,0.0,0.0,0.0,0.0,0.0,0.0,0
198063d93970f3b4,1551759524516,216,-6657.0,-8449.0,9471.0,0.0,0.0,0.0,0.0,0.0,0.0,0
198063d93970f3b4,1551759524607,217,-6657.0,-8449.0,9471.0,0.0,0.0,0.0,0.0,0.0,0.0,0
198063d93970f3b4,1551759524667,218,-6657.0,-8449.0,9471.0,0.0,0.0,0.0,0.0,0.0,0.0,0
198063d93970f3b4,1551759524727,219,-6657.0,-8449.0,9471.0,0.0,0.0,0.0,0.0,0.0,0.0,0
198063d93970f3b4,1551759524787,220,-6657.0,-8449.0,9471.0,0.0,0.0,0.0,0.0,0.0,0.0,0
198063d93970f3b4,1551759524847,221,-6657.0,-8449.0,9471.0,0.0,0.0,0.0,0.0,0.0,0.0,0
198063d93970f3b4,1551759524937,222,-6657.0,-8449.0,9471.0,0.0,0.0,0.0,0.0,0.0,0.0,0
198063d93970f3b4,1551759524997,223,-6657.0,-8449.0,9471.0,0.0,0.0,0.0,0.0,0.0,0.0,0
198063d93970f3b4,1551759525057,224,-6657.0,-8449.0,9471.0,0.0,0.0,0.0,0.0,0.0,0.0,0
198063d93970f3b4,1551759525116,225,-6657.0,-8449.0,9471.0,0.0,0.0,0.0,0.0,0.0,0.0,0
198063d93970f3b4,1551759525177,226,-6657.0,-8449.0,9471.0,0.0,0.0,0.0,0.0,0.0,0.0,0
198063d93970f3b4,1551759525267,227,-6657.0,-8449.0,9471.0,0.0,0.0,0.0,0.0,0.0,0.0,0
198063d93970f3b4,1551759525327,228,-6657.0,-8449.0,9215.0,0.0,0.0,0.0,0.0,0.0,0.0,0
198063d93970f3b4,1551759525387,229,-6657.0,-8449.0,9215.0,0.0,0.0,0.0,0.0,0.0,0.0,0
198063d93970f3b4,1551759525447,230,-6657.0,-8449.0,9215.0,0.0,0.0,0.0,0.0,0.0,0.0,0
198063d93970f3b4,1551759525507,231,-6657.0,-8449.0,9471.0,0.0,0.0,0.0,0.0,0.0,0.0,0
198063d93970f3b4,1551759525597,232,-6657.0,-8449.0,9215.0,0.0,0.0,0.0,0.0,0.0,0.0,0
198063d93970f3b4,1551759525657,233,-6657.0,-8449.0,9215.0,0.0,0.0,0.0,0.0,0.0,0.0,0
198063d93970f3b4,1551759525717,234,-6657.0,-8449.0,9215.0,0.0,0.0,0.0,0.0,0.0,0.0,0
198063d93970f3b4,1551759525777,235,-6657.0,-8449.0,9471.0,0.0,0.0,0.0,0.0,0.0,0.0,0
198063d93970f3b4,1551759525837,236,-6657.0,-8449.0,9471.0,0.0,0.0,0.0,0.0,0.0,0.0,0
198063d93970f3b4,1551759525927,237,-6657.0,-8449.0,9471.0,0.0,0.0,0.0,0.0,0.0,0.0,0
198063d93970f3b4,1551759525987,238,-6657.0,-8449.0,9471.0,0.0,0.0,0.0,0.0,0.0,0.0,0
198063d93970f3b4,1551759526047,239,-6657.0,-8449.0,9215.0,0.0,0.0,0.0,0.0,0.0,0.0,0
198063d93970f3b4,1551759526107,240,-6657.0,-8449.0,9471.0,0.0,0.0,0.0,0.0,0.0,0.0,0
198063d93970f3b4,1551759526167,241,-6657.0,-8449.0,9471.0,0.0,0.0,0.0,0.0,0.0,0.0,0
198063d93970f3b4,1551759526257,242,-6657.0,-8449.0,9471.0,0.0,0.0,0.0,0.0,0.0,0.0,0
198063d93970f3b4,1551759526316,243,-6657.0,-8449.0,9215.0,0.0,0.0,0.0,0.0,0.0,0.0,0
198063d93970f3b4,1551759526377,244,-6657.0,-8449.0,9215.0,0.0,0.0,0.0,0.0,0.0,0.0,0
198063d93970f3b4,1551759526437,245,-6657.0,-8449.0,9471.0,0.0,0.0,0.0,0.0,0.0,0.0,0
198063d93970f3b4,1551759526497,246,-6657.0,-8449.0,9471.0,0.0,0.0,0.0,0.0,0.0,0.0,0
198063d93970f3b4,1551759526587,247,-6657.0,-8449.0,9215.0,0.0,0.0,0.0,0.0,0.0,0.0,0
198063d93970f3b4,1551759526647,248,-6657.0,-8449.0,9215.0,0.0,0.0,0.0,0.0,0.0,0.0,0
198063d93970f3b4,1551759526707,249,-6657.0,-8449.0,9471.0,0.0,0.0,0.0,0.0,0.0,0.0,0
198063d93970f3b4,1551759526767,250,-6657.0,-8449.0,9215.0,0.0,0.0,0.0,0.0,0.0,0.0,0
198063d93970f3b4,1551759526827,251,-6657.0,-8449.0,9471.0,0.0,0.0,0.0,0.0,0.0,0.0,0
198063d93970f3b4,1551759526916,252,-6657.0,-8449.0,9471.0,0.0,0.0,0.0,0.0,0.0,0.0,0
198063d93970f3b4,1551759526977,253,-6657.0,-8449.0,9215.0,0.0,0.0,0.0,0.0,0.0,0.0,0
198063d93970f3b4,1551759527037,254,-6657.0,-8449.0,9471.0,0.0,0.0,0.0,0.0,0.0,0.0,0
198063d93970f3b4,1551759527097,255,-6657.0,-8449.0,9215.0,0.0,0.0,0.0,0.0,0.0,0.0,0
198063d93970f3b4,1551759527157,256,-6657.0,-8449.0,9471.0,0.0,0.0,0.0,0.0,0.0,0.0,0
198063d93970f3b4,1551759527247,257,-6657.0,-8449.0,9471.0,0.0,0.0,0.0,0.0,0.0,0.0,0
198063d93970f3b4,1551759527307,258,-6657.0,-8449.0,9471.0,0.0,0.0,0.0,0.0,0.0,0.0,0
198063d93970f3b4,1551759527367,259,-6657.0,-8449.0,9215.0,0.0,0.0,0.0,0.0,0.0,0.0,0
198063d93970f3b4,1551759527427,260,-6657.0,-8449.0,9471.0,0.0,0.0,0.0,0.0,0.0,0.0,0
198063d93970f3b4,1551759527487,261,-6657.0,-8449.0,9471.0,0.0,0.0,0.0,0.0,0.0,0.0,0
198063d93970f3b4,1551759527577,262,-6657.0,-8449.0,9471.0,0.0,0.0,0.0,0.0,0.0,0.0,0
198063d93970f3b4,1551759527637,263,-6657.0,-8449.0,9215.0,0.0,0.0,0.0,0.0,0.0,0.0,0
198063d93970f3b4,1551759527697,264,-6657.0,-8449.0,9215.0,0.0,0.0,0.0,0.0,0.0,0.0,0
198063d93970f3b4,1551759527757,265,-6657.0,-8449.0,9471.0,0.0,0.0,0.0,0.0,0.0,0.0,0
198063d93970f3b4,1551759527817,266,-6657.0,-8449.0,9471.0,0.0,0.0,0.0,0.0,0.0,0.0,0
198063d93970f3b4,1551759527907,267,-6657.0,-8449.0,9471.0,0.0,0.0,0.0,0.0,0.0,0.0,0
198063d93970f3b4,1551759527967,268,-6657.0,-8449.0,9215.0,0.0,0.0,0.0,0.0,0.0,0.0,0
198063d93970f3b4,1551759528027,269,-6657.0,-8449.0,9471.0,0.0,0.0,0.0,0.0,0.0,0.0,0
198063d93970f3b4,1551759528087,270,-6657.0,-8449.0,9471.0,0.0,0.0,0.0,0.0,0.0,0.0,0
198063d93970f3b4,1551759528147,271,-6657.0,-8449.0,9471.0,0.0,0.0,0.0,0.0,0.0,0.0,0
198063d93970f3b4,1551759528237,272,-6657.0,-8449.0,9471.0,0.0,0.0,0.0,0.0,0.0,0.0,0
198063d93970f3b4,1551759528297,273,-6657.0,-8449.0,9215.0,0.0,0.0,0.0,0.0,0.0,0.0,0
198063d93970f3b4,1551759528357,274,-6657.0,-8449.0,9471.0,0.0,0.0,0.0,0.0,0.0,0.0,0
198063d93970f3b4,1551759528416,275,-6657.0,-8449.0,9471.0,0.0,0.0,0.0,0.0,0.0,0.0,0
198063d93970f3b4,1551759528477,276,-6657.0,-8449.0,9215.0,0.0,0.0,0.0,0.0,0.0,0.0,0
198063d93970f3b4,1551759528567,277,-6657.0,-8449.0,9215.0,0.0,0.0,0.0,0.0,0.0,0.0,0
198063d93970f3b4,1551759528627,278,-6657.0,-8449.0,9471.0,0.0,0.0,0.0,0.0,0.0,0.0,0
198063d93970f3b4,1551759528687,279,-6657.0,-8449.0,9471.0,0.0,0.0,0.0,0.0,0.0,0.0,0
198063d93970f3b4,1551759528747,280,-6657.0,-8449.0,9471.0,0.0,0.0,0.0,0.0,0.0,0.0,0
198063d93970f3b4,1551759528807,281,-6657.0,-8449.0,9471.0,0.0,0.0,0.0,0.0,0.0,0.0,0
198063d93970f3b4,1551759528897,282,-6657.0,-8449.0,9471.0,0.0,0.0,0.0,0.0,0.0,0.0,0
198063d93970f3b4,1551759528957,283,-6657.0,-8449.0,9471.0,0.0,0.0,0.0,0.0,0.0,0.0,0
198063d93970f3b4,1551759529017,284,-6657.0,-8449.0,9471.0,0.0,0.0,0.0,0.0,0.0,0.0,0
198063d93970f3b4,1551759529077,285,-6657.0,-8449.0,9471.0,0.0,0.0,0.0,0.0,0.0,0.0,0
198063d93970f3b4,1551759529137,286,-6657.0,-8449.0,9471.0,0.0,0.0,0.0,0.0,0.0,0.0,0
198063d93970f3b4,1551759529227,287,-6657.0,-8449.0,9471.0,0.0,0.0,0.0,0.0,0.0,0.0,0
198063d93970f3b4,1551759529287,288,-6657.0,-8449.0,9471.0,0.0,0.0,0.0,0.0,0.0,0.0,0
198063d93970f3b4,1551759529347,289,-6657.0,-8449.0,9215.0,0.0,0.0,0.0,0.0,0.0,0.0,0
198063d93970f3b4,1551759529407,290,-6657.0,-8449.0,9471.0,0.0,0.0,0.0,0.0,0.0,0.0,0
198063d93970f3b4,1551759529467,291,-6657.0,-8449.0,9471.0,0.0,0.0,0.0,0.0,0.0,0.0,0
198063d93970f3b4,1551759529557,292,-6657.0,-8449.0,9471.0,0.0,0.0,0.0,0.0,0.0,0.0,0
198063d93970f3b4,1551759529616,293,-6657.0,-8449.0,9471.0,0.0,0.0,0.0,0.0,0.0,0.0,0
198063d93970f3b4,1551759529677,294,-6657.0,-8449.0,9215.0,0.0,0.0,0.0,0.0,0.0,0.0,0
198063d93970f3b4,1551759529737,295,-6657.0,-8449.0,9471.0,0.0,0.0,0.0,0.0,0.0,0.0,0
198063d93970f3b4,1551759529797,296,-6657.0,-8449.0,9215.0,0.0,0.0,0.0,0.0,0.0,0.0,0
198063d93970f3b4,1551759529887,297,-6657.0,-8449.0,9471.0,0.0,0.0,0.0,0.0,0.0,0.0,0
198063d93970f3b4,1551759529947,298,-6657.0,-8449.0,9471.0,0.0,0.0,0.0,0.0,0.0,0.0,0
198063d93970f3b4,1551759530007,299,-6657.0,-8449.0,9215.0,0.0,0.0,0.0,0.0,0.0,0.0,0
198063d93970f3b4,1551759530067,300,-6657.0,-8449.0,9471.0,0.0,0.0,0.0,0.0,0.0,0.0,0
198063d93970f3b4,1551759530127,301,-6657.0,-8449.0,9471.0,0.0,0.0,0.0,0.0,0.0,0.0,0
198063d93970f3b4,1551759530216,302,-6657.0,-8449.0,9471.0,0.0,0.0,0.0,0.0,0.0,0.0,0
198063d93970f3b4,1551759530277,303,-6657.0,-8449.0,9471.0,0.0,0.0,0.0,0.0,0.0,0.0,0
198063d93970f3b4,1551759530337,304,-6657.0,-8449.0,9471.0,0.0,0.0,0.0,0.0,0.0,0.0,0
198063d93970f3b4,1551759530397,305,-6657.0,-8449.0,9471.0,0.0,0.0,0.0,0.0,0.0,0.0,0
198063d93970f3b4,1551759530457,306,-6657.0,-8449.0,9471.0,0.0,0.0,0.0,0.0,0.0,0.0,0
198063d93970f3b4,1551759530547,307,-6657.0,-8449.0,9471.0,0.0,0.0,0.0,0.0,0.0,0.0,0
198063d93970f3b4,1551759530607,308,-6657.0,-8449.0,9471.0,0.0,0.0,0.0,0.0,0.0,0.0,0
198063d93970f3b4,1551759530666,309,-6657.0,-8449.0,9471.0,0.0,0.0,0.0,0.0,0.0,0.0,0
198063d93970f3b4,1551759530727,310,-6657.0,-8449.0,9471.0,0.0,0.0,0.0,0.0,0.0,0.0,0
198063d93970f3b4,1551759530787,311,-6657.0,-8449.0,9471.0,0.0,0.0,0.0,0.0,0.0,0.0,0
198063d93970f3b4,1551759530877,312,-6657.0,-8449.0,9215.0,0.0,0.0,0.0,0.0,0.0,0.0,0
198063d93970f3b4,1551759530937,313,-6657.0,-8449.0,9471.0,0.0,0.0,0.0,0.0,0.0,0.0,0
198063d93970f3b4,1551759530997,314,-6657.0,-8449.0,9471.0,0.0,0.0,0.0,0.0,0.0,0.0,0
198063d93970f3b4,1551759531057,315,-6657.0,-8449.0,9215.0,0.0,0.0,0.0,0.0,0.0,0.0,0
198063d93970f3b4,1551759531116,316,-6657.0,-8449.0,9471.0,0.0,0.0,0.0,0.0,0.0,0.0,0
198063d93970f3b4,1551759531206,317,-6913.0,-8449.0,10495.0,0.0,0.0,0.0,0.0,0.0,0.0,0
198063d93970f3b4,1551759531267,318,-6657.0,-8449.0,8959.0,0.0,0.0,0.0,0.0,0.0,0.0,0
198063d93970f3b4,1551759531327,319,-6657.0,-8449.0,9215.0,0.0,0.0,0.0,0.0,0.0,0.0,0
198063d93970f3b4,1551759531387,320,-6657.0,-8449.0,9471.0,0.0,0.0,0.0,0.0,0.0,0.0,0
198063d93970f3b4,1551759531447,321,-6913.0,-8449.0,9471.0,0.0,0.0,0.0,0.0,0.0,0.0,0
198063d93970f3b4,1551759531536,322,-6913.0,-8449.0,9215.0,0.0,0.0,0.0,0.0,0.0,0.0,0
198063d93970f3b4,1551759531597,323,-6657.0,-8449.0,9471.0,0.0,0.0,0.0,0.0,0.0,0.0,0
198063d93970f3b4,1551759531656,324,-6657.0,-8449.0,9215.0,0.0,0.0,0.0,0.0,0.0,0.0,0
198063d93970f3b4,1551759531716,325,-6913.0,-8449.0,9215.0,0.0,0.0,0.0,0.0,0.0,0.0,0
198063d93970f3b4,1551759531777,326,-6657.0,-8449.0,9215.0,0.0,0.0,0.0,0.0,0.0,0.0,0
198063d93970f3b4,1551759531867,327,-6657.0,-8449.0,9215.0,0.0,0.0,0.0,0.0,0.0,0.0,0
198063d93970f3b4,1551759531927,328,-6657.0,-8449.0,9215.0,0.0,0.0,0.0,0.0,0.0,0.0,0
198063d93970f3b4,1551759531987,329,-6657.0,-8705.0,9215.0,0.0,0.0,0.0,0.0,0.0,0.0,0
198063d93970f3b4,1551759532047,330,-6657.0,-8449.0,9215.0,0.0,0.0,0.0,0.0,0.0,0.0,0
198063d93970f3b4,1551759532107,331,-6657.0,-8449.0,9215.0,0.0,0.0,0.0,0.0,0.0,0.0,0
198063d93970f3b4,1551759532196,332,-6657.0,-8449.0,9215.0,0.0,0.0,0.0,0.0,0.0,0.0,0
198063d93970f3b4,1551759532257,333,-6657.0,-8449.0,9215.0,0.0,0.0,0.0,0.0,0.0,0.0,0
198063d93970f3b4,1551759532316,334,-6657.0,-8449.0,9215.0,0.0,0.0,0.0,0.0,0.0,0.0,0
198063d93970f3b4,1551759532376,335,-6657.0,-8449.0,9215.0,0.0,0.0,0.0,0.0,0.0,0.0,0
198063d93970f3b4,1551759532437,336,-6657.0,-8449.0,9215.0,0.0,0.0,0.0,0.0,0.0,0.0,0
198063d93970f3b4,1551759532527,337,-6657.0,-8449.0,9215.0,0.0,0.0,0.0,0.0,0.0,0.0,0
198063d93970f3b4,1551759532587,338,-6657.0,-8449.0,9215.0,0.0,0.0,0.0,0.0,0.0,0.0,0
198063d93970f3b4,1551759532647,339,-6657.0,-8449.0,9215.0,0.0,0.0,0.0,0.0,0.0,0.0,0
198063d93970f3b4,1551759532707,340,-6657.0,-8449.0,9215.0,0.0,0.0,0.0,0.0,0.0,0.0,0
198063d93970f3b4,1551759532767,341,-6657.0,-8449.0,9215.0,0.0,0.0,0.0,0.0,0.0,0.0,0
198063d93970f3b4,1551759532857,342,-6657.0,-8449.0,9215.0,0.0,0.0,0.0,0.0,0.0,0.0,0
198063d93970f3b4,1551759532916,343,-6657.0,-8449.0,9215.0,0.0,0.0,0.0,0.0,0.0,0.0,0
198063d93970f3b4,1551759532977,344,-6657.0,-8449.0,9215.0,0.0,0.0,0.0,0.0,0.0,0.0,0
198063d93970f3b4,1551759533036,345,-6657.0,-8449.0,9215.0,0.0,0.0,0.0,0.0,0.0,0.0,0
198063d93970f3b4,1551759533097,346,-6657.0,-8449.0,9215.0,0.0,0.0,0.0,0.0,0.0,0.0,0
198063d93970f3b4,1551759533187,347,-6657.0,-8449.0,9215.0,0.0,0.0,0.0,0.0,0.0,0.0,0
198063d93970f3b4,1551759533247,348,-6657.0,-8449.0,9215.0,0.0,0.0,0.0,0.0,0.0,0.0,0
198063d93970f3b4,1551759533306,349,-6657.0,-8449.0,9215.0,0.0,0.0,0.0,0.0,0.0,0.0,0
198063d93970f3b4,1551759533367,350,-6657.0,-8449.0,9215.0,0.0,0.0,0.0,0.0,0.0,0.0,0
198063d93970f3b4,1551759533427,351,-6657.0,-8449.0,9215.0,0.0,0.0,0.0,0.0,0.0,0.0,0
198063d93970f3b4,1551759533516,352,-6657.0,-8449.0,8703.0,0.0,0.0,0.0,0.0,0.0,0.0,0
198063d93970f3b4,1551759533577,353,-6145.0,-7681.0,8191.0,0.0,0.0,0.0,0.0,0.0,0.0,0
198063d93970f3b4,1551759533637,354,-7169.0,-9217.0,8191.0,0.0,0.0,0.0,0.0,0.0,0.0,0
198063d93970f3b4,1551759533697,355,-7169.0,-10241.0,8191.0,0.0,0.0,0.0,0.0,0.0,0.0,0
198063d93970f3b4,1551759533757,356,-6145.0,-8193.0,7167.0,0.0,0.0,0.0,0.0,0.0,0.0,0
198063d93970f3b4,1551759533847,357,-6657.0,-7681.0,6911.0,0.0,0.0,0.0,0.0,0.0,0.0,0
198063d93970f3b4,1551759533907,358,-6657.0,-8193.0,5119.0,0.0,0.0,0.0,0.0,0.0,0.0,0
198063d93970f3b4,1551759533967,359,-5889.0,-6401.0,8191.0,0.0,0.0,0.0,0.0,0.0,0.0,0
198063d93970f3b4,1551759534027,360,-6913.0,-7681.0,6399.0,0.0,0.0,0.0,0.0,0.0,0.0,0
198063d93970f3b4,1551759534087,361,-7425.0,-7425.0,6911.0,0.0,0.0,0.0,0.0,0.0,0.0,0
198063d93970f3b4,1551759534176,362,-6913.0,-7169.0,6399.0,0.0,0.0,0.0,0.0,0.0,0.0,0
198063d93970f3b4,1551759534237,363,-6913.0,-7681.0,6655.0,0.0,0.0,0.0,0.0,0.0,0.0,0
198063d93970f3b4,1551759534296,364,-6913.0,-6913.0,6143.0,0.0,0.0,0.0,0.0,0.0,0.0,0
198063d93970f3b4,1551759534357,365,-7169.0,-6401.0,6143.0,0.0,0.0,0.0,0.0,0.0,0.0,0
198063d93970f3b4,1551759534416,366,-6657.0,-6401.0,5375.0,0.0,0.0,0.0,0.0,0.0,0.0,0
198063d93970f3b4,1551759534507,367,-6913.0,-6145.0,5119.0,0.0,0.0,0.0,0.0,0.0,0.0,0
198063d93970f3b4,1551759534567,368,-6657.0,-6145.0,5119.0,0.0,0.0,0.0,0.0,0.0,0.0,0
198063d93970f3b4,1551759534627,369,-7169.0,-6401.0,5631.0,0.0,0.0,0.0,0.0,0.0,0.0,0
198063d93970f3b4,1551759534686,370,-6913.0,-7681.0,7679.0,0.0,0.0,0.0,0.0,0.0,0.0,0
198063d93970f3b4,1551759534747,371,-7937.0,-7169.0,5887.0,0.0,0.0,0.0,0.0,0.0,0.0,0
198063d93970f3b4,1551759534837,372,-7937.0,-7425.0,7679.0,0.0,0.0,0.0,0.0,0.0,0.0,0
198063d93970f3b4,1551759534897,373,-8193.0,-7937.0,7423.0,0.0,0.0,0.0,0.0,0.0,0.0,0
198063d93970f3b4,1551759534957,374,-7681.0,-8193.0,8447.0,0.0,0.0,0.0,0.0,0.0,0.0,0
198063d93970f3b4,1551759535016,375,-7425.0,-8193.0,8703.0,0.0,0.0,0.0,0.0,0.0,0.0,0
198063d93970f3b4,1551759535077,376,-7425.0,-8705.0,9983.0,0.0,0.0,0.0,0.0,0.0,0.0,0
198063d93970f3b4,1551759535166,377,-7681.0,-7425.0,7167.0,0.0,0.0,0.0,0.0,0.0,0.0,0
198063d93970f3b4,1551759535227,378,-7169.0,-8193.0,8703.0,0.0,0.0,0.0,0.0,0.0,0.0,0
198063d93970f3b4,1551759535287,379,-7425.0,-7937.0,8959.0,0.0,0.0,0.0,0.0,0.0,0.0,0
198063d93970f3b4,1551759535347,380,-7425.0,-8193.0,9215.0,0.0,0.0,0.0,0.0,0.0,0.0,0
198063d93970f3b4,1551759535407,381,-7169.0,-8193.0,10239.0,0.0,0.0,0.0,0.0,0.0,0.0,0
198063d93970f3b4,1551759535497,382,-7425.0,-8449.0,8447.0,0.0,0.0,0.0,0.0,0.0,0.0,0
198063d93970f3b4,1551759535556,383,-6913.0,-7681.0,8959.0,0.0,0.0,0.0,0.0,0.0,0.0,0
198063d93970f3b4,1551759535616,384,-6913.0,-7937.0,8703.0,0.0,0.0,0.0,0.0,0.0,0.0,0
198063d93970f3b4,1551759535676,385,-6913.0,-9217.0,9727.0,0.0,0.0,0.0,0.0,0.0,0.0,0
198063d93970f3b4,1551759535737,386,-7425.0,-8705.0,8959.0,0.0,0.0,0.0,0.0,0.0,0.0,0
198063d93970f3b4,1551759535827,387,-7425.0,-8449.0,8703.0,0.0,0.0,0.0,0.0,0.0,0.0,0
198063d93970f3b4,1551759535887,388,-7169.0,-8193.0,8959.0,0.0,0.0,0.0,0.0,0.0,0.0,0
198063d93970f3b4,1551759535947,389,-6913.0,-8193.0,9471.0,0.0,0.0,0.0,0.0,0.0,0.0,0
198063d93970f3b4,1551759536007,390,-6401.0,-9473.0,7679.0,0.0,0.0,0.0,0.0,0.0,0.0,0
198063d93970f3b4,1551759536067,391,-7169.0,-8449.0,9471.0,0.0,0.0,0.0,0.0,0.0,0.0,0
198063d93970f3b4,1551759536157,392,-6913.0,-8449.0,9471.0,0.0,0.0,0.0,0.0,0.0,0.0,0
198063d93970f3b4,1551759536217,393,-6913.0,-8449.0,9215.0,0.0,0.0,0.0,0.0,0.0,0.0,0
198063d93970f3b4,1551759536277,394,-6913.0,-8449.0,9471.0,0.0,0.0,0.0,0.0,0.0,0.0,0
198063d93970f3b4,1551759536337,395,-7169.0,-8449.0,9215.0,0.0,0.0,0.0,0.0,0.0,0.0,0
198063d93970f3b4,1551759536397,396,-6913.0,-8705.0,9215.0,0.0,0.0,0.0,0.0,0.0,0.0,0
198063d93970f3b4,1551759536487,397,-7169.0,-8449.0,9471.0,0.0,0.0,0.0,0.0,0.0,0.0,0
198063d93970f3b4,1551759536547,398,-7169.0,-8449.0,9471.0,0.0,0.0,0.0,0.0,0.0,0.0,0
198063d93970f3b4,1551759536607,399,-7169.0,-8193.0,9983.0,0.0,0.0,0.0,0.0,0.0,0.0,0
198063d93970f3b4,1551759536666,400,-7169.0,-8449.0,9471.0,0.0,0.0,0.0,0.0,0.0,0.0,0
198063d93970f3b4,1551759536727,401,-7169.0,-8449.0,9215.0,0.0,0.0,0.0,0.0,0.0,0.0,0
198063d93970f3b4,1551759536816,402,-7169.0,-8449.0,9471.0,0.0,0.0,0.0,0.0,0.0,0.0,0
198063d93970f3b4,1551759536877,403,-7169.0,-8449.0,9215.0,0.0,0.0,0.0,0.0,0.0,0.0,0
198063d93970f3b4,1551759536936,404,-7169.0,-8449.0,9471.0,0.0,0.0,0.0,0.0,0.0,0.0,0
198063d93970f3b4,1551759536997,405,-7169.0,-8449.0,9471.0,0.0,0.0,0.0,0.0,0.0,0.0,0
198063d93970f3b4,1551759537057,406,-7169.0,-8449.0,9471.0,0.0,0.0,0.0,0.0,0.0,0.0,0
198063d93970f3b4,1551759537147,407,-7169.0,-8449.0,9471.0,0.0,0.0,0.0,0.0,0.0,0.0,0
198063d93970f3b4,1551759537206,408,-7169.0,-8193.0,9471.0,0.0,0.0,0.0,0.0,0.0,0.0,0
198063d93970f3b4,1551759537267,409,-7169.0,-8193.0,9471.0,0.0,0.0,0.0,0.0,0.0,0.0,0
198063d93970f3b4,1551759537327,410,-7169.0,-8193.0,9215.0,0.0,0.0,0.0,0.0,0.0,0.0,0
198063d93970f3b4,1551759537387,411,-7169.0,-8449.0,9471.0,0.0,0.0,0.0,0.0,0.0,0.0,0
198063d93970f3b4,1551759537477,412,-7169.0,-8193.0,9471.0,0.0,0.0,0.0,0.0,0.0,0.0,0
198063d93970f3b4,1551759537537,413,-7169.0,-8449.0,9471.0,0.0,0.0,0.0,0.0,0.0,0.0,0
198063d93970f3b4,1551759537597,414,-7169.0,-8193.0,9215.0,0.0,0.0,0.0,0.0,0.0,0.0,0
198063d93970f3b4,1551759537657,415,-7169.0,-8193.0,9471.0,0.0,0.0,0.0,0.0,0.0,0.0,0
198063d93970f3b4,1551759537716,416,-7169.0,-8193.0,9215.0,0.0,0.0,0.0,0.0,0.0,0.0,0
198063d93970f3b4,1551759537806,417,-7169.0,-8193.0,9471.0,0.0,0.0,0.0,0.0,0.0,0.0,0
198063d93970f3b4,1551759537867,418,-7169.0,-8193.0,9215.0,0.0,0.0,0.0,0.0,0.0,0.0,0
198063d93970f3b4,1551759537926,419,-7169.0,-8449.0,9471.0,0.0,0.0,0.0,0.0,0.0,0.0,0
198063d93970f3b4,1551759537987,420,-7169.0,-8449.0,9471.0,0.0,0.0,0.0,0.0,0.0,0.0,0
198063d93970f3b4,1551759538047,421,-7169.0,-8449.0,9215.0,0.0,0.0,0.0,0.0,0.0,0.0,0
198063d93970f3b4,1551759538137,422,-7169.0,-8449.0,9215.0,0.0,0.0,0.0,0.0,0.0,0.0,0
198063d93970f3b4,1551759538196,423,-7169.0,-8449.0,9471.0,0.0,0.0,0.0,0.0,0.0,0.0,0
198063d93970f3b4,1551759538257,424,-7169.0,-8449.0,9215.0,0.0,0.0,0.0,0.0,0.0,0.0,0
198063d93970f3b4,1551759538316,425,-7169.0,-8449.0,9215.0,0.0,0.0,0.0,0.0,0.0,0.0,0
198063d93970f3b4,1551759538377,426,-7169.0,-8449.0,9215.0,0.0,0.0,0.0,0.0,0.0,0.0,0
198063d93970f3b4,1551759538467,427,-7169.0,-8449.0,9215.0,0.0,0.0,0.0,0.0,0.0,0.0,0
198063d93970f3b4,1551759538527,428,-7169.0,-8449.0,9471.0,0.0,0.0,0.0,0.0,0.0,0.0,0
198063d93970f3b4,1551759538587,429,-7169.0,-8193.0,9215.0,0.0,0.0,0.0,0.0,0.0,0.0,0
198063d93970f3b4,1551759538647,430,-7169.0,-8449.0,9215.0,0.0,0.0,0.0,0.0,0.0,0.0,0
198063d93970f3b4,1551759538706,431,-7169.0,-8449.0,9471.0,0.0,0.0,0.0,0.0,0.0,0.0,0
198063d93970f3b4,1551759538796,432,-7169.0,-8193.0,9471.0,0.0,0.0,0.0,0.0,0.0,0.0,0
198063d93970f3b4,1551759538856,433,-7425.0,-8193.0,9215.0,0.0,0.0,0.0,0.0,0.0,0.0,0
198063d93970f3b4,1551759538916,434,-7169.0,-8193.0,9215.0,0.0,0.0,0.0,0.0,0.0,0.0,0
198063d93970f3b4,1551759538977,435,-7169.0,-8193.0,9215.0,0.0,0.0,0.0,0.0,0.0,0.0,0
198063d93970f3b4,1551759539037,436,-7169.0,-8193.0,9471.0,0.0,0.0,0.0,0.0,0.0,0.0,0
198063d93970f3b4,1551759539127,437,-7169.0,-8193.0,9471.0,0.0,0.0,0.0,0.0,0.0,0.0,0
198063d93970f3b4,1551759539187,438,-7169.0,-8193.0,9471.0,0.0,0.0,0.0,0.0,0.0,0.0,0
198063d93970f3b4,1551759539247,439,-7169.0,-8193.0,9215.0,0.0,0.0,0.0,0.0,0.0,0.0,0
198063d93970f3b4,1551759539306,440,-7169.0,-8449.0,9471.0,0.0,0.0,0.0,0.0,0.0,0.0,0
198063d93970f3b4,1551759539367,441,-7425.0,-8193.0,9727.0,0.0,0.0,0.0,0.0,0.0,0.0,0
198063d93970f3b4,1551759539456,442,-6913.0,-8449.0,9215.0,0.0,0.0,0.0,0.0,0.0,0.0,0
198063d93970f3b4,1551759539516,443,-6913.0,-8449.0,9215.0,0.0,0.0,0.0,0.0,0.0,0.0,0
198063d93970f3b4,1551759539577,444,-6913.0,-8449.0,9215.0,0.0,0.0,0.0,0.0,0.0,0.0,0
198063d93970f3b4,1551759539637,445,-6657.0,-8449.0,9215.0,0.0,0.0,0.0,0.0,0.0,0.0,0
198063d93970f3b4,1551759539696,446,-6657.0,-8449.0,9215.0,0.0,0.0,0.0,0.0,0.0,0.0,0
198063d93970f3b4,1551759539787,447,-6657.0,-8449.0,9215.0,0.0,0.0,0.0,0.0,0.0,0.0,0
198063d93970f3b4,1551759539846,448,-6657.0,-8449.0,9215.0,0.0,0.0,0.0,0.0,0.0,0.0,0
198063d93970f3b4,1551759539907,449,-6657.0,-8449.0,9215.0,0.0,0.0,0.0,0.0,0.0,0.0,0
198063d93970f3b4,1551759539966,450,-6657.0,-8449.0,9215.0,0.0,0.0,0.0,0.0,0.0,0.0,0
198063d93970f3b4,1551759540026,451,-6657.0,-8449.0,9215.0,0.0,0.0,0.0,0.0,0.0,0.0,0
198063d93970f3b4,1551759540116,452,-6657.0,-8449.0,9215.0,0.0,0.0,0.0,0.0,0.0,0.0,0
198063d93970f3b4,1551759540176,453,-6657.0,-8449.0,9215.0,0.0,0.0,0.0,0.0,0.0,0.0,0
198063d93970f3b4,1551759540236,454,-6657.0,-8449.0,9471.0,0.0,0.0,0.0,0.0,0.0,0.0,0
198063d93970f3b4,1551759540297,455,-6657.0,-8449.0,9215.0,0.0,0.0,0.0,0.0,0.0,0.0,0
198063d93970f3b4,1551759540356,456,-6657.0,-8449.0,9215.0,0.0,0.0,0.0,0.0,0.0,0.0,0
198063d93970f3b4,1551759540447,457,-6657.0,-8449.0,9471.0,0.0,0.0,0.0,0.0,0.0,0.0,0
198063d93970f3b4,1551759540506,458,-6657.0,-8449.0,9215.0,0.0,0.0,0.0,0.0,0.0,0.0,0
198063d93970f3b4,1551759540566,459,-6657.0,-8449.0,9215.0,0.0,0.0,0.0,0.0,0.0,0.0,0
198063d93970f3b4,1551759540627,460,-6657.0,-8449.0,9215.0,0.0,0.0,0.0,0.0,0.0,0.0,0
198063d93970f3b4,1551759540686,461,-6657.0,-8449.0,9215.0,0.0,0.0,0.0,0.0,0.0,0.0,0
198063d93970f3b4,1551759540776,462,-6657.0,-8449.0,9215.0,0.0,0.0,0.0,0.0,0.0,0.0,0
198063d93970f3b4,1551759540836,463,-6657.0,-8449.0,9215.0,0.0,0.0,0.0,0.0,0.0,0.0,0
198063d93970f3b4,1551759540897,464,-6657.0,-8449.0,9471.0,0.0,0.0,0.0,0.0,0.0,0.0,0
198063d93970f3b4,1551759540956,465,-6657.0,-8449.0,9471.0,0.0,0.0,0.0,0.0,0.0,0.0,0
198063d93970f3b4,1551759541016,466,-6657.0,-8449.0,9215.0,0.0,0.0,0.0,0.0,0.0,0.0,0
198063d93970f3b4,1551759541106,467,-6657.0,-8449.0,9215.0,0.0,0.0,0.0,0.0,0.0,0.0,0
198063d93970f3b4,1551759541167,468,-6657.0,-8449.0,9471.0,0.0,0.0,0.0,0.0,0.0,0.0,0
198063d93970f3b4,1551759541226,469,-6657.0,-8449.0,9215.0,0.0,0.0,0.0,0.0,0.0,0.0,0
198063d93970f3b4,1551759541286,470,-6657.0,-8449.0,9471.0,0.0,0.0,0.0,0.0,0.0,0.0,0
198063d93970f3b4,1551759541347,471,-6657.0,-8449.0,9471.0,0.0,0.0,0.0,0.0,0.0,0.0,0
198063d93970f3b4,1551759541436,472,-6657.0,-8449.0,9471.0,0.0,0.0,0.0,0.0,0.0,0.0,0
198063d93970f3b4,1551759541496,473,-6657.0,-8449.0,9471.0,0.0,0.0,0.0,0.0,0.0,0.0,0
198063d93970f3b4,1551759541556,474,-6657.0,-8449.0,9215.0,0.0,0.0,0.0,0.0,0.0,0.0,0
198063d93970f3b4,1551759541616,475,-6657.0,-8449.0,9471.0,0.0,0.0,0.0,0.0,0.0,0.0,0
198063d93970f3b4,1551759541676,476,-6657.0,-8449.0,9215.0,0.0,0.0,0.0,0.0,0.0,0.0,0
198063d93970f3b4,1551759541766,477,-6657.0,-8449.0,9471.0,0.0,0.0,0.0,0.0,0.0,0.0,0
198063d93970f3b4,1551759541826,478,-6657.0,-8449.0,9471.0,0.0,0.0,0.0,0.0,0.0,0.0,0
198063d93970f3b4,1551759541886,479,-6657.0,-8449.0,9471.0,0.0,0.0,0.0,0.0,0.0,0.0,0
198063d93970f3b4,1551759541946,480,-6657.0,-8449.0,9471.0,0.0,0.0,0.0,0.0,0.0,0.0,0
198063d93970f3b4,1551759542006,481,-6657.0,-8449.0,9215.0,0.0,0.0,0.0,0.0,0.0,0.0,0
198063d93970f3b4,1551759542096,482,-6657.0,-8449.0,9215.0,0.0,0.0,0.0,0.0,0.0,0.0,0
198063d93970f3b4,1551759542157,483,-6657.0,-8449.0,9215.0,0.0,0.0,0.0,0.0,0.0,0.0,0
198063d93970f3b4,1551759542216,484,-6657.0,-8449.0,9215.0,0.0,0.0,0.0,0.0,0.0,0.0,0
198063d93970f3b4,1551759542276,485,-6913.0,-8449.0,9215.0,0.0,0.0,0.0,0.0,0.0,0.0,0
198063d93970f3b4,1551759542337,486,-6657.0,-8449.0,9215.0,0.0,0.0,0.0,0.0,0.0,0.0,0
198063d93970f3b4,1551759542426,487,-6657.0,-8449.0,9215.0,0.0,0.0,0.0,0.0,0.0,0.0,0
198063d93970f3b4,1551759542486,488,-6657.0,-8449.0,9215.0,0.0,0.0,0.0,0.0,0.0,0.0,0
198063d93970f3b4,1551759542546,489,-6657.0,-8449.0,9215.0,0.0,0.0,0.0,0.0,0.0,0.0,0
198063d93970f3b4,1551759542606,490,-6657.0,-8449.0,9215.0,0.0,0.0,0.0,0.0,0.0,0.0,0
198063d93970f3b4,1551759542666,491,-6657.0,-8449.0,9215.0,0.0,0.0,0.0,0.0,0.0,0.0,0
198063d93970f3b4,1551759542757,492,-6913.0,-8449.0,9215.0,0.0,0.0,0.0,0.0,0.0,0.0,0
198063d93970f3b4,1551759542816,493,-6657.0,-8449.0,9215.0,0.0,0.0,0.0,0.0,0.0,0.0,0
198063d93970f3b4,1551759542877,494,-6657.0,-8449.0,9215.0,0.0,0.0,0.0,0.0,0.0,0.0,0
198063d93970f3b4,1551759542936,495,-6657.0,-8449.0,9215.0,0.0,0.0,0.0,0.0,0.0,0.0,0
198063d93970f3b4,1551759542996,496,-6657.0,-8449.0,9215.0,0.0,0.0,0.0,0.0,0.0,0.0,0
198063d93970f3b4,1551759543086,497,-6657.0,-8449.0,9215.0,0.0,0.0,0.0,0.0,0.0,0.0,0
198063d93970f3b4,1551759543146,498,-6657.0,-8449.0,9215.0,0.0,0.0,0.0,0.0,0.0,0.0,0
198063d93970f3b4,1551759543206,499,-6657.0,-8449.0,9471.0,0.0,0.0,0.0,0.0,0.0,0.0,0
198063d93970f3b4,1551759543266,500,-6657.0,-8449.0,9215.0,0.0,0.0,0.0,0.0,0.0,0.0,0
198063d93970f3b4,1551759543326,501,-6657.0,-8449.0,9471.0,0.0,0.0,0.0,0.0,0.0,0.0,0
198063d93970f3b4,1551759543416,502,-6657.0,-8449.0,9471.0,0.0,0.0,0.0,0.0,0.0,0.0,0
198063d93970f3b4,1551759543476,503,-6657.0,-8449.0,9215.0,0.0,0.0,0.0,0.0,0.0,0.0,0
198063d93970f3b4,1551759543536,504,-6657.0,-8449.0,9215.0,0.0,0.0,0.0,0.0,0.0,0.0,0
198063d93970f3b4,1551759543597,505,-6657.0,-8449.0,9215.0,0.0,0.0,0.0,0.0,0.0,0.0,0
198063d93970f3b4,1551759543656,506,-6657.0,-8449.0,9215.0,0.0,0.0,0.0,0.0,0.0,0.0,0
198063d93970f3b4,1551759543746,507,-6657.0,-8449.0,9215.0,0.0,0.0,0.0,0.0,0.0,0.0,0
198063d93970f3b4,1551759543806,508,-6657.0,-8449.0,9215.0,0.0,0.0,0.0,0.0,0.0,0.0,0
198063d93970f3b4,1551759543866,509,-6657.0,-8449.0,9215.0,0.0,0.0,0.0,0.0,0.0,0.0,0
198063d93970f3b4,1551759543926,510,-6657.0,-8449.0,9215.0,0.0,0.0,0.0,0.0,0.0,0.0,0
198063d93970f3b4,1551759543987,511,-6657.0,-8449.0,9215.0,0.0,0.0,0.0,0.0,0.0,0.0,0
198063d93970f3b4,1551759544076,512,-6657.0,-8449.0,9215.0,0.0,0.0,0.0,0.0,0.0,0.0,0
198063d93970f3b4,1551759544136,513,-6657.0,-8449.0,9471.0,0.0,0.0,0.0,0.0,0.0,0.0,0
198063d93970f3b4,1551759544195,514,-6657.0,-8449.0,9471.0,0.0,0.0,0.0,0.0,0.0,0.0,0
198063d93970f3b4,1551759544256,515,-6657.0,-8449.0,9471.0,0.0,0.0,0.0,0.0,0.0,0.0,0
198063d93970f3b4,1551759544316,516,-6657.0,-8449.0,9215.0,0.0,0.0,0.0,0.0,0.0,0.0,0
198063d93970f3b4,1551759544406,517,-6657.0,-8449.0,9215.0,0.0,0.0,0.0,0.0,0.0,0.0,0
198063d93970f3b4,1551759544466,518,-6657.0,-8449.0,8959.0,0.0,0.0,0.0,0.0,0.0,0.0,0
198063d93970f3b4,1551759544526,519,-7425.0,-8449.0,7935.0,0.0,0.0,0.0,0.0,0.0,0.0,0
198063d93970f3b4,1551759544587,520,-6657.0,-8705.0,8703.0,0.0,0.0,0.0,0.0,0.0,0.0,0
198063d93970f3b4,1551759544647,521,-7425.0,-8961.0,7679.0,0.0,0.0,0.0,0.0,0.0,0.0,0
198063d93970f3b4,1551759544736,522,-6657.0,-8449.0,8191.0,0.0,0.0,0.0,0.0,0.0,0.0,0
198063d93970f3b4,1551759544796,523,-6657.0,-8449.0,8191.0,0.0,0.0,0.0,0.0,0.0,0.0,0
198063d93970f3b4,1551759544856,524,-6657.0,-7937.0,7679.0,0.0,0.0,0.0,0.0,0.0,0.0,0
198063d93970f3b4,1551759544916,525,-6657.0,-8449.0,7935.0,0.0,0.0,0.0,0.0,0.0,0.0,0
198063d93970f3b4,1551759544976,526,-6913.0,-8193.0,7679.0,0.0,0.0,0.0,0.0,0.0,0.0,0
198063d93970f3b4,1551759545066,527,-6657.0,-8193.0,7167.0,0.0,0.0,0.0,0.0,0.0,0.0,0
198063d93970f3b4,1551759545126,528,-6913.0,-8193.0,7423.0,0.0,0.0,0.0,0.0,0.0,0.0,0
198063d93970f3b4,1551759545186,529,-6657.0,-8193.0,7167.0,0.0,0.0,0.0,0.0,0.0,0.0,0
198063d93970f3b4,1551759545246,530,-6657.0,-8193.0,7423.0,0.0,0.0,0.0,0.0,0.0,0.0,0
198063d93970f3b4,1551759545306,531,-6913.0,-7937.0,7167.0,0.0,0.0,0.0,0.0,0.0,0.0,0
198063d93970f3b4,1551759545396,532,-6913.0,-7937.0,7167.0,0.0,0.0,0.0,0.0,0.0,0.0,0
198063d93970f3b4,1551759545456,533,-6913.0,-7937.0,7167.0,0.0,0.0,0.0,0.0,0.0,0.0,0
198063d93970f3b4,1551759545516,534,-7425.0,-7937.0,6911.0,0.0,0.0,0.0,0.0,0.0,0.0,0
198063d93970f3b4,1551759545576,535,-6913.0,-6913.0,8703.0,0.0,0.0,0.0,0.0,0.0,0.0,0
198063d93970f3b4,1551759545637,536,-8961.0,-8961.0,6143.0,0.0,0.0,0.0,0.0,0.0,0.0,0
198063d93970f3b4,1551759545726,537,-7937.0,-7681.0,8191.0,0.0,0.0,0.0,0.0,0.0,0.0,0
198063d93970f3b4,1551759545786,538,-8193.0,-7681.0,8191.0,0.0,0.0,0.0,0.0,0.0,0.0,0
198063d93970f3b4,1551759545846,539,-8449.0,-7681.0,9215.0,0.0,0.0,0.0,0.0,0.0,0.0,0
198063d93970f3b4,1551759545906,540,-7681.0,-7681.0,8447.0,0.0,0.0,0.0,0.0,0.0,0.0,0
198063d93970f3b4,1551759545966,541,-7937.0,-7937.0,8191.0,0.0,0.0,0.0,0.0,0.0,0.0,0
198063d93970f3b4,1551759546056,542,-7681.0,-7937.0,7935.0,0.0,0.0,0.0,0.0,0.0,0.0,0
198063d93970f3b4,1551759546057,543,-7681.0,-7937.0,7935.0,0.0,0.0,0.0,0.0,0.0,0.0,0
198063d93970f3b4,1551759546116,544,-7425.0,-7681.0,7679.0,0.0,0.0,0.0,0.0,0.0,0.0,0
198063d93970f3b4,1551759546176,545,-7169.0,-7425.0,7167.0,0.0,0.0,0.0,0.0,0.0,0.0,0
198063d93970f3b4,1551759546236,546,-6913.0,-8193.0,8447.0,0.0,0.0,0.0,0.0,0.0,0.0,0
198063d93970f3b4,1551759546296,547,-6657.0,-7425.0,6143.0,0.0,0.0,0.0,0.0,0.0,0.0,0
198063d93970f3b4,1551759546386,548,-6401.0,-6401.0,9215.0,0.0,0.0,0.0,0.0,0.0,0.0,0
198063d93970f3b4,1551759546446,549,-6145.0,-7425.0,5887.0,0.0,0.0,0.0,0.0,0.0,0.0,0
198063d93970f3b4,1551759546506,550,-6657.0,-7169.0,6399.0,0.0,0.0,0.0,0.0,0.0,0.0,0
198063d93970f3b4,1551759546566,551,-5633.0,-9473.0,-8193.0,0.0,0.0,0.0,0.0,0.0,0.0,0
198063d93970f3b4,1551759546626,552,-3073.0,-5121.0,4607.0,0.0,0.0,0.0,0.0,0.0,0.0,0
198063d93970f3b4,1551759546716,553,-5121.0,-4865.0,4863.0,0.0,0.0,0.0,0.0,0.0,0.0,0
198063d93970f3b4,1551759546776,554,-5121.0,-4865.0,4863.0,0.0,0.0,0.0,0.0,0.0,0.0,0
198063d93970f3b4,1551759546836,555,-5121.0,-4865.0,4863.0,0.0,0.0,0.0,0.0,0.0,0.0,0
198063d93970f3b4,1551759546896,556,-5121.0,-4865.0,4863.0,0.0,0.0,0.0,0.0,0.0,0.0,0
198063d93970f3b4,1551759546956,557,-5121.0,-5121.0,4863.0,0.0,0.0,0.0,0.0,0.0,0.0,0
198063d93970f3b4,1551759547046,558,-5633.0,-4865.0,5119.0,0.0,0.0,0.0,0.0,0.0,0.0,0
198063d93970f3b4,1551759547106,559,-4865.0,-4609.0,4863.0,0.0,0.0,0.0,0.0,0.0,0.0,0
198063d93970f3b4,1551759547166,560,-4097.0,-4097.0,3071.0,0.0,0.0,0.0,0.0,0.0,0.0,0
198063d93970f3b4,1551759547226,561,-5121.0,-4865.0,4863.0,0.0,0.0,0.0,0.0,0.0,0.0,0
198063d93970f3b4,1551759547286,562,-4609.0,-4353.0,5887.0,0.0,0.0,0.0,0.0,0.0,0.0,0
198063d93970f3b4,1551759547376,563,-5121.0,-5121.0,4863.0,0.0,0.0,0.0,0.0,0.0,0.0,0
198063d93970f3b4,1551759547436,564,-5121.0,-4865.0,4863.0,0.0,0.0,0.0,0.0,0.0,0.0,0
198063d93970f3b4,1551759547496,565,-5121.0,-4865.0,4863.0,0.0,0.0,0.0,0.0,0.0,0.0,0
198063d93970f3b4,1551759547556,566,-5121.0,-4865.0,4863.0,0.0,0.0,0.0,0.0,0.0,0.0,0
198063d93970f3b4,1551759547616,567,-5121.0,-4865.0,4863.0,0.0,0.0,0.0,0.0,0.0,0.0,0
198063d93970f3b4,1551759547706,568,-5121.0,-5121.0,4863.0,0.0,0.0,0.0,0.0,0.0,0.0,0
198063d93970f3b4,1551759547766,569,-5121.0,-4865.0,4863.0,0.0,0.0,0.0,0.0,0.0,0.0,0
198063d93970f3b4,1551759547826,570,-5121.0,-5121.0,4863.0,0.0,0.0,0.0,0.0,0.0,0.0,0
198063d93970f3b4,1551759547886,571,-5121.0,-5121.0,4863.0,0.0,0.0,0.0,0.0,0.0,0.0,0
198063d93970f3b4,1551759547946,572,-5121.0,-5121.0,4607.0,0.0,0.0,0.0,0.0,0.0,0.0,0
198063d93970f3b4,1551759548036,573,-5121.0,-5121.0,4863.0,0.0,0.0,0.0,0.0,0.0,0.0,0
198063d93970f3b4,1551759548096,574,-5121.0,-5121.0,4863.0,0.0,0.0,0.0,0.0,0.0,0.0,0
198063d93970f3b4,1551759548156,575,-5121.0,-4865.0,4863.0,0.0,0.0,0.0,0.0,0.0,0.0,0
198063d93970f3b4,1551759548216,576,-5121.0,-4865.0,4863.0,0.0,0.0,0.0,0.0,0.0,0.0,0
198063d93970f3b4,1551759548276,577,-5121.0,-4865.0,4863.0,0.0,0.0,0.0,0.0,0.0,0.0,0
198063d93970f3b4,1551759548366,578,-5121.0,-4865.0,4863.0,0.0,0.0,0.0,0.0,0.0,0.0,0
198063d93970f3b4,1551759548426,579,-5121.0,-5121.0,4863.0,0.0,0.0,0.0,0.0,0.0,0.0,0
198063d93970f3b4,1551759548486,580,-5121.0,-4865.0,4863.0,0.0,0.0,0.0,0.0,0.0,0.0,0
198063d93970f3b4,1551759548546,581,-5121.0,-4865.0,4863.0,0.0,0.0,0.0,0.0,0.0,0.0,0
198063d93970f3b4,1551759548606,582,-5121.0,-5121.0,4863.0,0.0,0.0,0.0,0.0,0.0,0.0,0
198063d93970f3b4,1551759548696,583,-5121.0,-4865.0,4863.0,0.0,0.0,0.0,0.0,0.0,0.0,0
198063d93970f3b4,1551759548756,584,-5121.0,-4865.0,4863.0,0.0,0.0,0.0,0.0,0.0,0.0,0
198063d93970f3b4,1551759548816,585,-5121.0,-5121.0,4863.0,0.0,0.0,0.0,0.0,0.0,0.0,0
198063d93970f3b4,1551759548877,586,-5121.0,-4865.0,4863.0,0.0,0.0,0.0,0.0,0.0,0.0,0
198063d93970f3b4,1551759548936,587,-5121.0,-4865.0,4863.0,0.0,0.0,0.0,0.0,0.0,0.0,0
198063d93970f3b4,1551759549026,588,-5121.0,-5121.0,4863.0,0.0,0.0,0.0,0.0,0.0,0.0,0
198063d93970f3b4,1551759549086,589,-5121.0,-5121.0,4863.0,0.0,0.0,0.0,0.0,0.0,0.0,0
198063d93970f3b4,1551759549146,590,-5121.0,-4865.0,4863.0,0.0,0.0,0.0,0.0,0.0,0.0,0
198063d93970f3b4,1551759549206,591,-5121.0,-5121.0,4863.0,0.0,0.0,0.0,0.0,0.0,0.0,0
198063d93970f3b4,1551759549266,592,-5121.0,-4865.0,4863.0,0.0,0.0,0.0,0.0,0.0,0.0,0
198063d93970f3b4,1551759549356,593,-5121.0,-4865.0,4863.0,0.0,0.0,0.0,0.0,0.0,0.0,0
198063d93970f3b4,1551759549416,594,-5121.0,-4865.0,4863.0,0.0,0.0,0.0,0.0,0.0,0.0,0
198063d93970f3b4,1551759549476,595,-5121.0,-4865.0,4863.0,0.0,0.0,0.0,0.0,0.0,0.0,0
198063d93970f3b4,1551759549536,596,-5121.0,-4865.0,4863.0,0.0,0.0,0.0,0.0,0.0,0.0,0
198063d93970f3b4,1551759549596,597,-5121.0,-4865.0,4863.0,0.0,0.0,0.0,0.0,0.0,0.0,0
198063d93970f3b4,1551759549687,598,-5121.0,-5121.0,4863.0,0.0,0.0,0.0,0.0,0.0,0.0,0
198063d93970f3b4,1551759549746,599,-5121.0,-4865.0,4863.0,0.0,0.0,0.0,0.0,0.0,0.0,0
198063d93970f3b4,1551759549806,600,-5121.0,-4865.0,4863.0,0.0,0.0,0.0,0.0,0.0,0.0,0
198063d93970f3b4,1551759549866,601,-5121.0,-4865.0,4863.0,0.0,0.0,0.0,0.0,0.0,0.0,0
198063d93970f3b4,1551759549926,602,-5121.0,-4865.0,4863.0,0.0,0.0,0.0,0.0,0.0,0.0,0
198063d93970f3b4,1551759550016,603,-5121.0,-4865.0,4863.0,0.0,0.0,0.0,0.0,0.0,0.0,0
198063d93970f3b4,1551759550076,604,-5121.0,-4865.0,4863.0,0.0,0.0,0.0,0.0,0.0,0.0,0
198063d93970f3b4,1551759550136,605,-5121.0,-4865.0,4863.0,0.0,0.0,0.0,0.0,0.0,0.0,0
198063d93970f3b4,1551759550196,606,-5121.0,-5121.0,4863.0,0.0,0.0,0.0,0.0,0.0,0.0,0
198063d93970f3b4,1551759550256,607,-5121.0,-4865.0,4863.0,0.0,0.0,0.0,0.0,0.0,0.0,0
198063d93970f3b4,1551759550346,608,-5121.0,-4865.0,4863.0,0.0,0.0,0.0,0.0,0.0,0.0,0
198063d93970f3b4,1551759550406,609,-5121.0,-4865.0,4863.0,0.0,0.0,0.0,0.0,0.0,0.0,0
198063d93970f3b4,1551759550466,610,-5121.0,-4865.0,4863.0,0.0,0.0,0.0,0.0,0.0,0.0,0
198063d93970f3b4,1551759550526,611,-5121.0,-4865.0,4863.0,0.0,0.0,0.0,0.0,0.0,0.0,0
198063d93970f3b4,1551759550587,612,-5121.0,-4865.0,4863.0,0.0,0.0,0.0,0.0,0.0,0.0,0
198063d93970f3b4,1551759550676,613,-5121.0,-4865.0,4863.0,0.0,0.0,0.0,0.0,0.0,0.0,0
198063d93970f3b4,1551759550736,614,-5121.0,-4865.0,4863.0,0.0,0.0,0.0,0.0,0.0,0.0,0
198063d93970f3b4,1551759550796,615,-5121.0,-5121.0,4863.0,0.0,0.0,0.0,0.0,0.0,0.0,0
198063d93970f3b4,1551759550856,616,-5121.0,-5121.0,4863.0,0.0,0.0,0.0,0.0,0.0,0.0,0
198063d93970f3b4,1551759550916,617,-5121.0,-4865.0,4863.0,0.0,0.0,0.0,0.0,0.0,0.0,0
198063d93970f3b4,1551759551006,618,-5121.0,-5121.0,4863.0,0.0,0.0,0.0,0.0,0.0,0.0,0
198063d93970f3b4,1551759551066,619,-5121.0,-5121.0,4863.0,0.0,0.0,0.0,0.0,0.0,0.0,0
198063d93970f3b4,1551759551126,620,-5121.0,-4865.0,4863.0,0.0,0.0,0.0,0.0,0.0,0.0,0
198063d93970f3b4,1551759551186,621,-5121.0,-4865.0,4863.0,0.0,0.0,0.0,0.0,0.0,0.0,0
198063d93970f3b4,1551759551246,622,-5121.0,-4865.0,4863.0,0.0,0.0,0.0,0.0,0.0,0.0,0
198063d93970f3b4,1551759551335,623,-5121.0,-4865.0,4863.0,0.0,0.0,0.0,0.0,0.0,0.0,0
198063d93970f3b4,1551759551337,624,-5121.0,-4865.0,4863.0,0.0,0.0,0.0,0.0,0.0,0.0,0
198063d93970f3b4,1551759551396,625,-5121.0,-4865.0,4863.0,0.0,0.0,0.0,0.0,0.0,0.0,0
198063d93970f3b4,1551759551456,626,-5121.0,-4865.0,4863.0,0.0,0.0,0.0,0.0,0.0,0.0,0
198063d93970f3b4,1551759551516,627,-5121.0,-5121.0,4863.0,0.0,0.0,0.0,0.0,0.0,0.0,0
198063d93970f3b4,1551759551576,628,-5121.0,-5121.0,4863.0,0.0,0.0,0.0,0.0,0.0,0.0,0
198063d93970f3b4,1551759551666,629,-5121.0,-4865.0,4863.0,0.0,0.0,0.0,0.0,0.0,0.0,0
198063d93970f3b4,1551759551726,630,-5121.0,-4865.0,4863.0,0.0,0.0,0.0,0.0,0.0,0.0,0
198063d93970f3b4,1551759551786,631,-5121.0,-4865.0,4863.0,0.0,0.0,0.0,0.0,0.0,0.0,0
198063d93970f3b4,1551759551846,632,-5121.0,-5121.0,4863.0,0.0,0.0,0.0,0.0,0.0,0.0,0
198063d93970f3b4,1551759551906,633,-5121.0,-4865.0,4863.0,0.0,0.0,0.0,0.0,0.0,0.0,0
198063d93970f3b4,1551759551996,634,-5121.0,-4865.0,4863.0,0.0,0.0,0.0,0.0,0.0,0.0,0
198063d93970f3b4,1551759552056,635,-5121.0,-4865.0,4863.0,0.0,0.0,0.0,0.0,0.0,0.0,0
198063d93970f3b4,1551759552116,636,-5121.0,-4865.0,4863.0,0.0,0.0,0.0,0.0,0.0,0.0,0
198063d93970f3b4,1551759552176,637,-5121.0,-4865.0,4863.0,0.0,0.0,0.0,0.0,0.0,0.0,0
198063d93970f3b4,1551759552236,638,-5121.0,-4865.0,4863.0,0.0,0.0,0.0,0.0,0.0,0.0,0
198063d93970f3b4,1551759552326,639,-5121.0,-4865.0,4863.0,0.0,0.0,0.0,0.0,0.0,0.0,0
198063d93970f3b4,1551759552387,640,-5121.0,-5121.0,4863.0,0.0,0.0,0.0,0.0,0.0,0.0,0
198063d93970f3b4,1551759552446,641,-5121.0,-5121.0,4863.0,0.0,0.0,0.0,0.0,0.0,0.0,0
198063d93970f3b4,1551759552506,642,-5121.0,-5121.0,4863.0,0.0,0.0,0.0,0.0,0.0,0.0,0
198063d93970f3b4,1551759552566,643,-5121.0,-5121.0,4863.0,0.0,0.0,0.0,0.0,0.0,0.0,0
198063d93970f3b4,1551759552656,644,-5121.0,-4865.0,4863.0,0.0,0.0,0.0,0.0,0.0,0.0,0
198063d93970f3b4,1551759552716,645,-5121.0,-4865.0,4863.0,0.0,0.0,0.0,0.0,0.0,0.0,0
198063d93970f3b4,1551759552776,646,-5121.0,-4865.0,4863.0,0.0,0.0,0.0,0.0,0.0,0.0,0
198063d93970f3b4,1551759552835,647,-5121.0,-5121.0,4863.0,0.0,0.0,0.0,0.0,0.0,0.0,0
198063d93970f3b4,1551759552896,648,-5121.0,-4865.0,4863.0,0.0,0.0,0.0,0.0,0.0,0.0,0
198063d93970f3b4,1551759552986,649,-5121.0,-5121.0,4863.0,0.0,0.0,0.0,0.0,0.0,0.0,0
198063d93970f3b4,1551759553046,650,-5121.0,-4865.0,4863.0,0.0,0.0,0.0,0.0,0.0,0.0,0
198063d93970f3b4,1551759553106,651,-5121.0,-4865.0,4863.0,0.0,0.0,0.0,0.0,0.0,0.0,0
198063d93970f3b4,1551759553166,652,-5121.0,-5121.0,4863.0,0.0,0.0,0.0,0.0,0.0,0.0,0
198063d93970f3b4,1551759553226,653,-5121.0,-5121.0,4863.0,0.0,0.0,0.0,0.0,0.0,0.0,0
198063d93970f3b4,1551759553316,654,-5121.0,-4865.0,4863.0,0.0,0.0,0.0,0.0,0.0,0.0,0
198063d93970f3b4,1551759553376,655,-5121.0,-4865.0,4863.0,0.0,0.0,0.0,0.0,0.0,0.0,0
198063d93970f3b4,1551759553436,656,-5121.0,-5121.0,4863.0,0.0,0.0,0.0,0.0,0.0,0.0,0
198063d93970f3b4,1551759553496,657,-5121.0,-4865.0,4863.0,0.0,0.0,0.0,0.0,0.0,0.0,0
198063d93970f3b4,1551759553556,658,-5121.0,-5121.0,4863.0,0.0,0.0,0.0,0.0,0.0,0.0,0
198063d93970f3b4,1551759553646,659,-5121.0,-4865.0,4863.0,0.0,0.0,0.0,0.0,0.0,0.0,0
198063d93970f3b4,1551759553706,660,-5121.0,-5121.0,4863.0,0.0,0.0,0.0,0.0,0.0,0.0,0
198063d93970f3b4,1551759553766,661,-5121.0,-4865.0,4863.0,0.0,0.0,0.0,0.0,0.0,0.0,0
198063d93970f3b4,1551759553826,662,-5121.0,-4865.0,4863.0,0.0,0.0,0.0,0.0,0.0,0.0,0
198063d93970f3b4,1551759553886,663,-5121.0,-5121.0,4863.0,0.0,0.0,0.0,0.0,0.0,0.0,0
198063d93970f3b4,1551759553976,664,-5121.0,-4865.0,4863.0,0.0,0.0,0.0,0.0,0.0,0.0,0
198063d93970f3b4,1551759554036,665,-5121.0,-4865.0,4863.0,0.0,0.0,0.0,0.0,0.0,0.0,0
198063d93970f3b4,1551759554096,666,-5121.0,-5121.0,4863.0,0.0,0.0,0.0,0.0,0.0,0.0,0
198063d93970f3b4,1551759554156,667,-5121.0,-4865.0,4863.0,0.0,0.0,0.0,0.0,0.0,0.0,0
198063d93970f3b4,1551759554216,668,-5121.0,-4865.0,4863.0,0.0,0.0,0.0,0.0,0.0,0.0,0
198063d93970f3b4,1551759554305,669,-5121.0,-5121.0,4863.0,0.0,0.0,0.0,0.0,0.0,0.0,0
198063d93970f3b4,1551759554307,670,-5121.0,-5121.0,4863.0,0.0,0.0,0.0,0.0,0.0,0.0,0
198063d93970f3b4,1551759554366,671,-5121.0,-4865.0,4863.0,0.0,0.0,0.0,0.0,0.0,0.0,0
198063d93970f3b4,1551759554426,672,-5121.0,-4865.0,4863.0,0.0,0.0,0.0,0.0,0.0,0.0,0
198063d93970f3b4,1551759554486,673,-5121.0,-4865.0,4863.0,0.0,0.0,0.0,0.0,0.0,0.0,0
198063d93970f3b4,1551759554546,674,-5121.0,-4865.0,4863.0,0.0,0.0,0.0,0.0,0.0,0.0,0
198063d93970f3b4,1551759554636,675,-5121.0,-5121.0,4863.0,0.0,0.0,0.0,0.0,0.0,0.0,0
198063d93970f3b4,1551759554696,676,-5121.0,-5121.0,4863.0,0.0,0.0,0.0,0.0,0.0,0.0,0
198063d93970f3b4,1551759554756,677,-5121.0,-5121.0,4863.0,0.0,0.0,0.0,0.0,0.0,0.0,0
198063d93970f3b4,1551759554816,678,-5121.0,-4865.0,4863.0,0.0,0.0,0.0,0.0,0.0,0.0,0
198063d93970f3b4,1551759554876,679,-5121.0,-4865.0,4863.0,0.0,0.0,0.0,0.0,0.0,0.0,0
198063d93970f3b4,1551759554966,680,-5121.0,-5121.0,4863.0,0.0,0.0,0.0,0.0,0.0,0.0,0
198063d93970f3b4,1551759555026,681,-5121.0,-5121.0,4863.0,0.0,0.0,0.0,0.0,0.0,0.0,0
198063d93970f3b4,1551759555086,682,-5121.0,-4865.0,4863.0,0.0,0.0,0.0,0.0,0.0,0.0,0
198063d93970f3b4,1551759555146,683,-5121.0,-4865.0,4863.0,0.0,0.0,0.0,0.0,0.0,0.0,0
198063d93970f3b4,1551759555206,684,-5121.0,-5121.0,4863.0,0.0,0.0,0.0,0.0,0.0,0.0,0
198063d93970f3b4,1551759555296,685,-5121.0,-5121.0,4863.0,0.0,0.0,0.0,0.0,0.0,0.0,0
198063d93970f3b4,1551759555356,686,-5121.0,-4865.0,4863.0,0.0,0.0,0.0,0.0,0.0,0.0,0
198063d93970f3b4,1551759555416,687,-5121.0,-4865.0,4863.0,0.0,0.0,0.0,0.0,0.0,0.0,0
198063d93970f3b4,1551759555476,688,-5121.0,-5121.0,4863.0,0.0,0.0,0.0,0.0,0.0,0.0,0
198063d93970f3b4,1551759555536,689,-5121.0,-4865.0,4863.0,0.0,0.0,0.0,0.0,0.0,0.0,0
198063d93970f3b4,1551759555626,690,-5121.0,-4865.0,4863.0,0.0,0.0,0.0,0.0,0.0,0.0,0
198063d93970f3b4,1551759555686,691,-5121.0,-5121.0,4863.0,0.0,0.0,0.0,0.0,0.0,0.0,0
198063d93970f3b4,1551759555746,692,-5121.0,-5121.0,4863.0,0.0,0.0,0.0,0.0,0.0,0.0,0
198063d93970f3b4,1551759555806,693,-5121.0,-4865.0,4863.0,0.0,0.0,0.0,0.0,0.0,0.0,0
198063d93970f3b4,1551759555866,694,-5121.0,-5121.0,4863.0,0.0,0.0,0.0,0.0,0.0,0.0,0
198063d93970f3b4,1551759555956,695,-5121.0,-4865.0,4863.0,0.0,0.0,0.0,0.0,0.0,0.0,0
198063d93970f3b4,1551759556016,696,-5121.0,-5121.0,4863.0,0.0,0.0,0.0,0.0,0.0,0.0,0
198063d93970f3b4,1551759556076,697,-5121.0,-4865.0,4863.0,0.0,0.0,0.0,0.0,0.0,0.0,0
198063d93970f3b4,1551759556136,698,-5121.0,-4865.0,4863.0,0.0,0.0,0.0,0.0,0.0,0.0,0
198063d93970f3b4,1551759556196,699,-5121.0,-4865.0,4863.0,0.0,0.0,0.0,0.0,0.0,0.0,0
198063d93970f3b4,1551759556286,700,-5121.0,-5121.0,4863.0,0.0,0.0,0.0,0.0,0.0,0.0,0
198063d93970f3b4,1551759556346,701,-5121.0,-5121.0,4863.0,0.0,0.0,0.0,0.0,0.0,0.0,0
198063d93970f3b4,1551759556406,702,-5121.0,-4865.0,4863.0,0.0,0.0,0.0,0.0,0.0,0.0,0
198063d93970f3b4,1551759556466,703,-5121.0,-4865.0,4863.0,0.0,0.0,0.0,0.0,0.0,0.0,0
198063d93970f3b4,1551759556526,704,-5121.0,-4865.0,4863.0,0.0,0.0,0.0,0.0,0.0,0.0,0
198063d93970f3b4,1551759556616,705,-5121.0,-4865.0,4863.0,0.0,0.0,0.0,0.0,0.0,0.0,0
198063d93970f3b4,1551759556676,706,-5121.0,-5121.0,4863.0,0.0,0.0,0.0,0.0,0.0,0.0,0
198063d93970f3b4,1551759556736,707,-5121.0,-4865.0,4863.0,0.0,0.0,0.0,0.0,0.0,0.0,0
198063d93970f3b4,1551759556796,708,-5121.0,-4865.0,4863.0,0.0,0.0,0.0,0.0,0.0,0.0,0
198063d93970f3b4,1551759556856,709,-5121.0,-4865.0,4863.0,0.0,0.0,0.0,0.0,0.0,0.0,0
198063d93970f3b4,1551759556946,710,-5121.0,-4865.0,4863.0,0.0,0.0,0.0,0.0,0.0,0.0,0
198063d93970f3b4,1551759557006,711,-5121.0,-5121.0,4863.0,0.0,0.0,0.0,0.0,0.0,0.0,0
198063d93970f3b4,1551759557066,712,-5121.0,-4865.0,4863.0,0.0,0.0,0.0,0.0,0.0,0.0,0
198063d93970f3b4,1551759557126,713,-5121.0,-4865.0,4863.0,0.0,0.0,0.0,0.0,0.0,0.0,0
198063d93970f3b4,1551759557186,714,-5121.0,-4865.0,4863.0,0.0,0.0,0.0,0.0,0.0,0.0,0
198063d93970f3b4,1551759557276,715,-5121.0,-4865.0,4863.0,0.0,0.0,0.0,0.0,0.0,0.0,0
198063d93970f3b4,1551759557336,716,-5121.0,-4865.0,4863.0,0.0,0.0,0.0,0.0,0.0,0.0,0
198063d93970f3b4,1551759557396,717,-5121.0,-4865.0,4863.0,0.0,0.0,0.0,0.0,0.0,0.0,0
198063d93970f3b4,1551759557456,718,-5121.0,-5121.0,4863.0,0.0,0.0,0.0,0.0,0.0,0.0,0
198063d93970f3b4,1551759557516,719,-5121.0,-5121.0,4863.0,0.0,0.0,0.0,0.0,0.0,0.0,0
198063d93970f3b4,1551759557606,720,-5121.0,-4865.0,4863.0,0.0,0.0,0.0,0.0,0.0,0.0,0
198063d93970f3b4,1551759557666,721,-5121.0,-5121.0,4863.0,0.0,0.0,0.0,0.0,0.0,0.0,0
198063d93970f3b4,1551759557726,722,-5121.0,-5121.0,4863.0,0.0,0.0,0.0,0.0,0.0,0.0,0
198063d93970f3b4,1551759557786,723,-5121.0,-4865.0,4863.0,0.0,0.0,0.0,0.0,0.0,0.0,0
198063d93970f3b4,1551759557846,724,-5121.0,-5121.0,4863.0,0.0,0.0,0.0,0.0,0.0,0.0,0
198063d93970f3b4,1551759557936,725,-5121.0,-5121.0,4863.0,0.0,0.0,0.0,0.0,0.0,0.0,0
198063d93970f3b4,1551759557996,726,-5121.0,-4865.0,4863.0,0.0,0.0,0.0,0.0,0.0,0.0,0
198063d93970f3b4,1551759558056,727,-5121.0,-5121.0,4863.0,0.0,0.0,0.0,0.0,0.0,0.0,0
198063d93970f3b4,1551759558116,728,-5121.0,-5121.0,4863.0,0.0,0.0,0.0,0.0,0.0,0.0,0
198063d93970f3b4,1551759558176,729,-5121.0,-4865.0,4863.0,0.0,0.0,0.0,0.0,0.0,0.0,0
198063d93970f3b4,1551759558265,730,-5121.0,-4865.0,4863.0,0.0,0.0,0.0,0.0,0.0,0.0,0
198063d93970f3b4,1551759558267,731,-5121.0,-4865.0,4863.0,0.0,0.0,0.0,0.0,0.0,0.0,0
198063d93970f3b4,1551759558326,732,-5121.0,-4865.0,4863.0,0.0,0.0,0.0,0.0,0.0,0.0,0
198063d93970f3b4,1551759558386,733,-5121.0,-5121.0,4863.0,0.0,0.0,0.0,0.0,0.0,0.0,0
198063d93970f3b4,1551759558446,734,-5121.0,-5121.0,4863.0,0.0,0.0,0.0,0.0,0.0,0.0,0
198063d93970f3b4,1551759558506,735,-5121.0,-4865.0,4863.0,0.0,0.0,0.0,0.0,0.0,0.0,0
198063d93970f3b4,1551759558596,736,-5121.0,-4865.0,4863.0,0.0,0.0,0.0,0.0,0.0,0.0,0
198063d93970f3b4,1551759558656,737,-5121.0,-5121.0,4863.0,0.0,0.0,0.0,0.0,0.0,0.0,0
198063d93970f3b4,1551759558716,738,-5121.0,-4865.0,4863.0,0.0,0.0,0.0,0.0,0.0,0.0,0
198063d93970f3b4,1551759558776,739,-5121.0,-4865.0,4863.0,0.0,0.0,0.0,0.0,0.0,0.0,0
198063d93970f3b4,1551759558836,740,-5121.0,-5121.0,4863.0,0.0,0.0,0.0,0.0,0.0,0.0,0
198063d93970f3b4,1551759558926,741,-5121.0,-5121.0,4863.0,0.0,0.0,0.0,0.0,0.0,0.0,0
198063d93970f3b4,1551759558986,742,-5121.0,-4865.0,4863.0,0.0,0.0,0.0,0.0,0.0,0.0,0
198063d93970f3b4,1551759559046,743,-5121.0,-4865.0,4863.0,0.0,0.0,0.0,0.0,0.0,0.0,0
198063d93970f3b4,1551759559106,744,-5121.0,-4865.0,4863.0,0.0,0.0,0.0,0.0,0.0,0.0,0
198063d93970f3b4,1551759559166,745,-5121.0,-4865.0,4863.0,0.0,0.0,0.0,0.0,0.0,0.0,0
198063d93970f3b4,1551759559256,746,-5121.0,-4865.0,4863.0,0.0,0.0,0.0,0.0,0.0,0.0,0
198063d93970f3b4,1551759559316,747,-5121.0,-5121.0,4863.0,0.0,0.0,0.0,0.0,0.0,0.0,0
198063d93970f3b4,1551759559376,748,-5121.0,-4865.0,4863.0,0.0,0.0,0.0,0.0,0.0,0.0,0
198063d93970f3b4,1551759559436,749,-5121.0,-4865.0,4863.0,0.0,0.0,0.0,0.0,0.0,0.0,0
198063d93970f3b4,1551759559496,750,-5121.0,-5121.0,4863.0,0.0,0.0,0.0,0.0,0.0,0.0,0
198063d93970f3b4,1551759559586,751,-5121.0,-4865.0,4863.0,0.0,0.0,0.0,0.0,0.0,0.0,0
198063d93970f3b4,1551759559646,752,-5121.0,-5121.0,4863.0,0.0,0.0,0.0,0.0,0.0,0.0,0
198063d93970f3b4,1551759559706,753,-5121.0,-5121.0,4863.0,0.0,0.0,0.0,0.0,0.0,0.0,0
198063d93970f3b4,1551759559766,754,-5121.0,-4865.0,4863.0,0.0,0.0,0.0,0.0,0.0,0.0,0
198063d93970f3b4,1551759559826,755,-5121.0,-4865.0,4863.0,0.0,0.0,0.0,0.0,0.0,0.0,0
198063d93970f3b4,1551759559916,756,-5121.0,-4865.0,4863.0,0.0,0.0,0.0,0.0,0.0,0.0,0
198063d93970f3b4,1551759559976,757,-5121.0,-5121.0,4863.0,0.0,0.0,0.0,0.0,0.0,0.0,0
198063d93970f3b4,1551759560036,758,-5121.0,-4865.0,4863.0,0.0,0.0,0.0,0.0,0.0,0.0,0
198063d93970f3b4,1551759560096,759,-5121.0,-5121.0,4863.0,0.0,0.0,0.0,0.0,0.0,0.0,0
198063d93970f3b4,1551759560156,760,-5121.0,-5121.0,4863.0,0.0,0.0,0.0,0.0,0.0,0.0,0
198063d93970f3b4,1551759560246,761,-5121.0,-4865.0,4863.0,0.0,0.0,0.0,0.0,0.0,0.0,0
198063d93970f3b4,1551759560306,762,-5121.0,-5121.0,4863.0,0.0,0.0,0.0,0.0,0.0,0.0,0
198063d93970f3b4,1551759560366,763,-5121.0,-4865.0,4863.0,0.0,0.0,0.0,0.0,0.0,0.0,0
198063d93970f3b4,1551759560426,764,-5121.0,-4865.0,4863.0,0.0,0.0,0.0,0.0,0.0,0.0,0
198063d93970f3b4,1551759560486,765,-5121.0,-4865.0,4863.0,0.0,0.0,0.0,0.0,0.0,0.0,0
198063d93970f3b4,1551759560576,766,-5121.0,-4865.0,4863.0,0.0,0.0,0.0,0.0,0.0,0.0,0
198063d93970f3b4,1551759560636,767,-5121.0,-4865.0,4863.0,0.0,0.0,0.0,0.0,0.0,0.0,0
198063d93970f3b4,1551759560696,768,-5121.0,-5121.0,4863.0,0.0,0.0,0.0,0.0,0.0,0.0,0
198063d93970f3b4,1551759560756,769,-5121.0,-5121.0,4863.0,0.0,0.0,0.0,0.0,0.0,0.0,0
198063d93970f3b4,1551759560816,770,-5121.0,-5121.0,4863.0,0.0,0.0,0.0,0.0,0.0,0.0,0
198063d93970f3b4,1551759560906,771,-5121.0,-4865.0,4863.0,0.0,0.0,0.0,0.0,0.0,0.0,0
198063d93970f3b4,1551759560966,772,-5121.0,-4865.0,4863.0,0.0,0.0,0.0,0.0,0.0,0.0,0
198063d93970f3b4,1551759561026,773,-5121.0,-4865.0,4863.0,0.0,0.0,0.0,0.0,0.0,0.0,0
198063d93970f3b4,1551759561086,774,-5121.0,-5121.0,4863.0,0.0,0.0,0.0,0.0,0.0,0.0,0
198063d93970f3b4,1551759561146,775,-5121.0,-4865.0,4863.0,0.0,0.0,0.0,0.0,0.0,0.0,0
198063d93970f3b4,1551759561236,776,-5121.0,-4865.0,4863.0,0.0,0.0,0.0,0.0,0.0,0.0,0
198063d93970f3b4,1551759561296,777,-5121.0,-4865.0,4863.0,0.0,0.0,0.0,0.0,0.0,0.0,0
198063d93970f3b4,1551759561356,778,-5121.0,-5121.0,4863.0,0.0,0.0,0.0,0.0,0.0,0.0,0
198063d93970f3b4,1551759561416,779,-5121.0,-5121.0,4863.0,0.0,0.0,0.0,0.0,0.0,0.0,0
198063d93970f3b4,1551759561476,780,-5121.0,-4865.0,4863.0,0.0,0.0,0.0,0.0,0.0,0.0,0
198063d93970f3b4,1551759561566,781,-5121.0,-5121.0,4863.0,0.0,0.0,0.0,0.0,0.0,0.0,0
198063d93970f3b4,1551759561626,782,-5121.0,-4865.0,4863.0,0.0,0.0,0.0,0.0,0.0,0.0,0
198063d93970f3b4,1551759561685,783,-5121.0,-4865.0,4863.0,0.0,0.0,0.0,0.0,0.0,0.0,0
198063d93970f3b4,1551759561746,784,-5121.0,-4865.0,4863.0,0.0,0.0,0.0,0.0,0.0,0.0,0
198063d93970f3b4,1551759561806,785,-5121.0,-5121.0,4863.0,0.0,0.0,0.0,0.0,0.0,0.0,0
198063d93970f3b4,1551759561896,786,-5121.0,-5121.0,4863.0,0.0,0.0,0.0,0.0,0.0,0.0,0
198063d93970f3b4,1551759561956,787,-5121.0,-4865.0,4863.0,0.0,0.0,0.0,0.0,0.0,0.0,0
198063d93970f3b4,1551759562016,788,-5121.0,-4865.0,4863.0,0.0,0.0,0.0,0.0,0.0,0.0,0
198063d93970f3b4,1551759562076,789,-5121.0,-5121.0,4863.0,0.0,0.0,0.0,0.0,0.0,0.0,0
198063d93970f3b4,1551759562136,790,-5121.0,-5121.0,4863.0,0.0,0.0,0.0,0.0,0.0,0.0,0
198063d93970f3b4,1551759562226,791,-5121.0,-4865.0,4863.0,0.0,0.0,0.0,0.0,0.0,0.0,0
198063d93970f3b4,1551759562285,792,-5121.0,-4865.0,4863.0,0.0,0.0,0.0,0.0,0.0,0.0,0
198063d93970f3b4,1551759562346,793,-5121.0,-4865.0,4863.0,0.0,0.0,0.0,0.0,0.0,0.0,0
198063d93970f3b4,1551759562405,794,-5121.0,-5121.0,4863.0,0.0,0.0,0.0,0.0,0.0,0.0,0
198063d93970f3b4,1551759562466,795,-5121.0,-4865.0,4863.0,0.0,0.0,0.0,0.0,0.0,0.0,0
198063d93970f3b4,1551759562556,796,-5121.0,-5121.0,4863.0,0.0,0.0,0.0,0.0,0.0,0.0,0
198063d93970f3b4,1551759562615,797,-5121.0,-5121.0,4863.0,0.0,0.0,0.0,0.0,0.0,0.0,0
198063d93970f3b4,1551759562676,798,-5121.0,-4865.0,4863.0,0.0,0.0,0.0,0.0,0.0,0.0,0
198063d93970f3b4,1551759562736,799,-5121.0,-5121.0,4863.0,0.0,0.0,0.0,0.0,0.0,0.0,0
198063d93970f3b4,1551759562796,800,-5121.0,-4865.0,4863.0,0.0,0.0,0.0,0.0,0.0,0.0,0
198063d93970f3b4,1551759562886,801,-5121.0,-4865.0,4863.0,0.0,0.0,0.0,0.0,0.0,0.0,0
198063d93970f3b4,1551759562946,802,-5121.0,-4865.0,4863.0,0.0,0.0,0.0,0.0,0.0,0.0,0
198063d93970f3b4,1551759563006,803,-5121.0,-4865.0,4863.0,0.0,0.0,0.0,0.0,0.0,0.0,0
198063d93970f3b4,1551759563066,804,-5121.0,-4865.0,4863.0,0.0,0.0,0.0,0.0,0.0,0.0,0
198063d93970f3b4,1551759563126,805,-5121.0,-4865.0,4863.0,0.0,0.0,0.0,0.0,0.0,0.0,0
198063d93970f3b4,1551759563216,806,-5121.0,-5121.0,4863.0,0.0,0.0,0.0,0.0,0.0,0.0,0
198063d93970f3b4,1551759563276,807,-5121.0,-4865.0,4863.0,0.0,0.0,0.0,0.0,0.0,0.0,0
198063d93970f3b4,1551759563336,808,-5121.0,-5121.0,4863.0,0.0,0.0,0.0,0.0,0.0,0.0,0
198063d93970f3b4,1551759563396,809,-5121.0,-4865.0,4863.0,0.0,0.0,0.0,0.0,0.0,0.0,0
198063d93970f3b4,1551759563456,810,-5121.0,-4865.0,4863.0,0.0,0.0,0.0,0.0,0.0,0.0,0
198063d93970f3b4,1551759563546,811,-5121.0,-5121.0,4863.0,0.0,0.0,0.0,0.0,0.0,0.0,0
198063d93970f3b4,1551759563606,812,-5121.0,-4865.0,4863.0,0.0,0.0,0.0,0.0,0.0,0.0,0
198063d93970f3b4,1551759563666,813,-5121.0,-5121.0,4863.0,0.0,0.0,0.0,0.0,0.0,0.0,0
198063d93970f3b4,1551759563726,814,-5121.0,-4865.0,4863.0,0.0,0.0,0.0,0.0,0.0,0.0,0
198063d93970f3b4,1551759563786,815,-5121.0,-4865.0,4863.0,0.0,0.0,0.0,0.0,0.0,0.0,0
198063d93970f3b4,1551759563876,816,-5121.0,-4865.0,4863.0,0.0,0.0,0.0,0.0,0.0,0.0,0
198063d93970f3b4,1551759563936,817,-5121.0,-5121.0,4863.0,0.0,0.0,0.0,0.0,0.0,0.0,0
198063d93970f3b4,1551759563996,818,-5121.0,-4865.0,4863.0,0.0,0.0,0.0,0.0,0.0,0.0,0
198063d93970f3b4,1551759564056,819,-5121.0,-4865.0,4863.0,0.0,0.0,0.0,0.0,0.0,0.0,0
198063d93970f3b4,1551759564115,820,-5121.0,-4865.0,4863.0,0.0,0.0,0.0,0.0,0.0,0.0,0
198063d93970f3b4,1551759564205,821,-5121.0,-5121.0,4863.0,0.0,0.0,0.0,0.0,0.0,0.0,0
198063d93970f3b4,1551759564266,822,-5121.0,-4865.0,4863.0,0.0,0.0,0.0,0.0,0.0,0.0,0
198063d93970f3b4,1551759564326,823,-5121.0,-4865.0,4863.0,0.0,0.0,0.0,0.0,0.0,0.0,0
198063d93970f3b4,1551759564386,824,-5121.0,-5121.0,4863.0,0.0,0.0,0.0,0.0,0.0,0.0,0
198063d93970f3b4,1551759564446,825,-5121.0,-4865.0,4863.0,0.0,0.0,0.0,0.0,0.0,0.0,0
198063d93970f3b4,1551759564536,826,-5121.0,-4865.0,4863.0,0.0,0.0,0.0,0.0,0.0,0.0,0
198063d93970f3b4,1551759564596,827,-5121.0,-4865.0,4863.0,0.0,0.0,0.0,0.0,0.0,0.0,0
198063d93970f3b4,1551759564656,828,-5121.0,-5121.0,4863.0,0.0,0.0,0.0,0.0,0.0,0.0,0
198063d93970f3b4,1551759564715,829,-5121.0,-4865.0,4863.0,0.0,0.0,0.0,0.0,0.0,0.0,0
198063d93970f3b4,1551759564776,830,-5121.0,-4865.0,4863.0,0.0,0.0,0.0,0.0,0.0,0.0,0
198063d93970f3b4,1551759564866,831,-5121.0,-4865.0,4863.0,0.0,0.0,0.0,0.0,0.0,0.0,0
198063d93970f3b4,1551759564926,832,-5121.0,-5121.0,4863.0,0.0,0.0,0.0,0.0,0.0,0.0,0
198063d93970f3b4,1551759564985,833,-5121.0,-4865.0,4863.0,0.0,0.0,0.0,0.0,0.0,0.0,0
198063d93970f3b4,1551759565046,834,-5121.0,-4865.0,4863.0,0.0,0.0,0.0,0.0,0.0,0.0,0
198063d93970f3b4,1551759565105,835,-5121.0,-5121.0,4863.0,0.0,0.0,0.0,0.0,0.0,0.0,0
198063d93970f3b4,1551759565195,836,-5121.0,-4865.0,4863.0,0.0,0.0,0.0,0.0,0.0,0.0,0
198063d93970f3b4,1551759565256,837,-5121.0,-4865.0,4863.0,0.0,0.0,0.0,0.0,0.0,0.0,0
198063d93970f3b4,1551759565315,838,-5121.0,-4865.0,4863.0,0.0,0.0,0.0,0.0,0.0,0.0,0
198063d93970f3b4,1551759565376,839,-5121.0,-5121.0,4863.0,0.0,0.0,0.0,0.0,0.0,0.0,0
198063d93970f3b4,1551759565436,840,-5121.0,-5121.0,4863.0,0.0,0.0,0.0,0.0,0.0,0.0,0
198063d93970f3b4,1551759565526,841,-5121.0,-4865.0,4863.0,0.0,0.0,0.0,0.0,0.0,0.0,0
198063d93970f3b4,1551759565586,842,-5121.0,-5121.0,4863.0,0.0,0.0,0.0,0.0,0.0,0.0,0
198063d93970f3b4,1551759565646,843,-5121.0,-5121.0,4863.0,0.0,0.0,0.0,0.0,0.0,0.0,0
198063d93970f3b4,1551759565706,844,-5121.0,-5121.0,4863.0,0.0,0.0,0.0,0.0,0.0,0.0,0
198063d93970f3b4,1551759565766,845,-5121.0,-4865.0,4863.0,0.0,0.0,0.0,0.0,0.0,0.0,0
198063d93970f3b4,1551759565856,846,-5121.0,-4865.0,4863.0,0.0,0.0,0.0,0.0,0.0,0.0,0
198063d93970f3b4,1551759565915,847,-5121.0,-4865.0,4863.0,0.0,0.0,0.0,0.0,0.0,0.0,0
198063d93970f3b4,1551759565975,848,-5121.0,-4865.0,4863.0,0.0,0.0,0.0,0.0,0.0,0.0,0
198063d93970f3b4,1551759566036,849,-5121.0,-4865.0,4863.0,0.0,0.0,0.0,0.0,0.0,0.0,0
198063d93970f3b4,1551759566096,850,-5121.0,-4865.0,4863.0,0.0,0.0,0.0,0.0,0.0,0.0,0
198063d93970f3b4,1551759566186,851,-5121.0,-4865.0,4863.0,0.0,0.0,0.0,0.0,0.0,0.0,0
198063d93970f3b4,1551759566246,852,-5121.0,-5121.0,4863.0,0.0,0.0,0.0,0.0,0.0,0.0,0
198063d93970f3b4,1551759566306,853,-5121.0,-5121.0,4863.0,0.0,0.0,0.0,0.0,0.0,0.0,0
198063d93970f3b4,1551759566365,854,-5121.0,-4865.0,4863.0,0.0,0.0,0.0,0.0,0.0,0.0,0
198063d93970f3b4,1551759566426,855,-5121.0,-4865.0,4863.0,0.0,0.0,0.0,0.0,0.0,0.0,0
198063d93970f3b4,1551759566515,856,-5121.0,-5121.0,4863.0,0.0,0.0,0.0,0.0,0.0,0.0,0
198063d93970f3b4,1551759566576,857,-5121.0,-5121.0,4863.0,0.0,0.0,0.0,0.0,0.0,0.0,0
198063d93970f3b4,1551759566636,858,-5121.0,-5121.0,4863.0,0.0,0.0,0.0,0.0,0.0,0.0,0
198063d93970f3b4,1551759566696,859,-5121.0,-4865.0,4863.0,0.0,0.0,0.0,0.0,0.0,0.0,0
198063d93970f3b4,1551759566756,860,-5121.0,-4865.0,4863.0,0.0,0.0,0.0,0.0,0.0,0.0,0
198063d93970f3b4,1551759566846,861,-5121.0,-4865.0,4863.0,0.0,0.0,0.0,0.0,0.0,0.0,0
198063d93970f3b4,1551759566906,862,-5121.0,-4865.0,4863.0,0.0,0.0,0.0,0.0,0.0,0.0,0
198063d93970f3b4,1551759566966,863,-5121.0,-4865.0,4863.0,0.0,0.0,0.0,0.0,0.0,0.0,0
198063d93970f3b4,1551759567026,864,-5121.0,-5121.0,4863.0,0.0,0.0,0.0,0.0,0.0,0.0,0
198063d93970f3b4,1551759567085,865,-5121.0,-5121.0,4863.0,0.0,0.0,0.0,0.0,0.0,0.0,0
198063d93970f3b4,1551759567176,866,-5121.0,-4865.0,4863.0,0.0,0.0,0.0,0.0,0.0,0.0,0
198063d93970f3b4,1551759567235,867,-5121.0,-4865.0,4863.0,0.0,0.0,0.0,0.0,0.0,0.0,0
198063d93970f3b4,1551759567296,868,-5121.0,-4865.0,4863.0,0.0,0.0,0.0,0.0,0.0,0.0,0
198063d93970f3b4,1551759567356,869,-5121.0,-5121.0,4863.0,0.0,0.0,0.0,0.0,0.0,0.0,0
198063d93970f3b4,1551759567415,870,-5121.0,-5121.0,4863.0,0.0,0.0,0.0,0.0,0.0,0.0,0
198063d93970f3b4,1551759567506,871,-5121.0,-5121.0,4863.0,0.0,0.0,0.0,0.0,0.0,0.0,0
198063d93970f3b4,1551759567566,872,-5121.0,-4865.0,4863.0,0.0,0.0,0.0,0.0,0.0,0.0,0
198063d93970f3b4,1551759567626,873,-5121.0,-4865.0,4863.0,0.0,0.0,0.0,0.0,0.0,0.0,0
198063d93970f3b4,1551759567685,874,-5121.0,-4865.0,4863.0,0.0,0.0,0.0,0.0,0.0,0.0,0
198063d93970f3b4,1551759567746,875,-5121.0,-4865.0,4863.0,0.0,0.0,0.0,0.0,0.0,0.0,0
198063d93970f3b4,1551759567836,876,-5121.0,-4865.0,4863.0,0.0,0.0,0.0,0.0,0.0,0.0,0
198063d93970f3b4,1551759567896,877,-5121.0,-4865.0,4863.0,0.0,0.0,0.0,0.0,0.0,0.0,0
198063d93970f3b4,1551759567956,878,-5121.0,-4865.0,4863.0,0.0,0.0,0.0,0.0,0.0,0.0,0
198063d93970f3b4,1551759568015,879,-5121.0,-4865.0,4863.0,0.0,0.0,0.0,0.0,0.0,0.0,0
198063d93970f3b4,1551759568076,880,-5121.0,-4865.0,4863.0,0.0,0.0,0.0,0.0,0.0,0.0,0
198063d93970f3b4,1551759568166,881,-5121.0,-4865.0,4863.0,0.0,0.0,0.0,0.0,0.0,0.0,0
198063d93970f3b4,1551759568225,882,-5121.0,-4865.0,4863.0,0.0,0.0,0.0,0.0,0.0,0.0,0
198063d93970f3b4,1551759568285,883,-5121.0,-4865.0,4863.0,0.0,0.0,0.0,0.0,0.0,0.0,0
198063d93970f3b4,1551759568346,884,-5121.0,-4865.0,4863.0,0.0,0.0,0.0,0.0,0.0,0.0,0
198063d93970f3b4,1551759568406,885,-5121.0,-5121.0,4863.0,0.0,0.0,0.0,0.0,0.0,0.0,0
198063d93970f3b4,1551759568495,886,-5121.0,-4865.0,4863.0,0.0,0.0,0.0,0.0,0.0,0.0,0
198063d93970f3b4,1551759568556,887,-5121.0,-4865.0,4863.0,0.0,0.0,0.0,0.0,0.0,0.0,0
198063d93970f3b4,1551759568615,888,-5121.0,-4865.0,4863.0,0.0,0.0,0.0,0.0,0.0,0.0,0
198063d93970f3b4,1551759568676,889,-5121.0,-4865.0,4863.0,0.0,0.0,0.0,0.0,0.0,0.0,0
198063d93970f3b4,1551759568736,890,-5121.0,-4865.0,4863.0,0.0,0.0,0.0,0.0,0.0,0.0,0
198063d93970f3b4,1551759568826,891,-5121.0,-4865.0,4863.0,0.0,0.0,0.0,0.0,0.0,0.0,0
198063d93970f3b4,1551759568885,892,-5121.0,-4865.0,4863.0,0.0,0.0,0.0,0.0,0.0,0.0,0
198063d93970f3b4,1551759568946,893,-5121.0,-5121.0,4863.0,0.0,0.0,0.0,0.0,0.0,0.0,0
198063d93970f3b4,1551759569006,894,-5121.0,-4865.0,4863.0,0.0,0.0,0.0,0.0,0.0,0.0,0
198063d93970f3b4,1551759569066,895,-5121.0,-5121.0,4863.0,0.0,0.0,0.0,0.0,0.0,0.0,0
198063d93970f3b4,1551759569156,896,-5121.0,-4865.0,4863.0,0.0,0.0,0.0,0.0,0.0,0.0,0
198063d93970f3b4,1551759569215,897,-5121.0,-4865.0,4863.0,0.0,0.0,0.0,0.0,0.0,0.0,0
198063d93970f3b4,1551759569276,898,-5121.0,-4865.0,4863.0,0.0,0.0,0.0,0.0,0.0,0.0,0
198063d93970f3b4,1551759569336,899,-5121.0,-5121.0,4863.0,0.0,0.0,0.0,0.0,0.0,0.0,0
198063d93970f3b4,1551759569396,900,-5121.0,-5121.0,4863.0,0.0,0.0,0.0,0.0,0.0,0.0,0
198063d93970f3b4,1551759569485,901,-5121.0,-5121.0,4863.0,0.0,0.0,0.0,0.0,0.0,0.0,0
198063d93970f3b4,1551759569546,902,-5121.0,-5121.0,4863.0,0.0,0.0,0.0,0.0,0.0,0.0,0
198063d93970f3b4,1551759569606,903,-5121.0,-4865.0,4863.0,0.0,0.0,0.0,0.0,0.0,0.0,0
198063d93970f3b4,1551759569666,904,-5121.0,-4865.0,4863.0,0.0,0.0,0.0,0.0,0.0,0.0,0
198063d93970f3b4,1551759569726,905,-5121.0,-4865.0,4863.0,0.0,0.0,0.0,0.0,0.0,0.0,0
198063d93970f3b4,1551759569815,906,-5121.0,-5121.0,4863.0,0.0,0.0,0.0,0.0,0.0,0.0,0
198063d93970f3b4,1551759569875,907,-5121.0,-4865.0,4863.0,0.0,0.0,0.0,0.0,0.0,0.0,0
198063d93970f3b4,1551759569936,908,-5121.0,-4865.0,4863.0,0.0,0.0,0.0,0.0,0.0,0.0,0
198063d93970f3b4,1551759569995,909,-5121.0,-4865.0,4863.0,0.0,0.0,0.0,0.0,0.0,0.0,0
198063d93970f3b4,1551759570056,910,-5121.0,-4865.0,4863.0,0.0,0.0,0.0,0.0,0.0,0.0,0
198063d93970f3b4,1551759570146,911,-5121.0,-4865.0,4863.0,0.0,0.0,0.0,0.0,0.0,0.0,0
198063d93970f3b4,1551759570205,912,-5121.0,-4865.0,4863.0,0.0,0.0,0.0,0.0,0.0,0.0,0
198063d93970f3b4,1551759570266,913,-5121.0,-5121.0,4863.0,0.0,0.0,0.0,0.0,0.0,0.0,0
198063d93970f3b4,1551759570326,914,-5121.0,-5121.0,4863.0,0.0,0.0,0.0,0.0,0.0,0.0,0
198063d93970f3b4,1551759570385,915,-5121.0,-4865.0,4863.0,0.0,0.0,0.0,0.0,0.0,0.0,0
198063d93970f3b4,1551759570476,916,-5121.0,-4865.0,4863.0,0.0,0.0,0.0,0.0,0.0,0.0,0
198063d93970f3b4,1551759570536,917,-5121.0,-5121.0,4863.0,0.0,0.0,0.0,0.0,0.0,0.0,0
198063d93970f3b4,1551759570596,918,-5121.0,-4865.0,4863.0,0.0,0.0,0.0,0.0,0.0,0.0,0
198063d93970f3b4,1551759570656,919,-5121.0,-5121.0,4863.0,0.0,0.0,0.0,0.0,0.0,0.0,0
198063d93970f3b4,1551759570715,920,-5121.0,-4865.0,4863.0,0.0,0.0,0.0,0.0,0.0,0.0,0
198063d93970f3b4,1551759570806,921,-5121.0,-5121.0,4863.0,0.0,0.0,0.0,0.0,0.0,0.0,0
198063d93970f3b4,1551759570865,922,-5121.0,-5121.0,4863.0,0.0,0.0,0.0,0.0,0.0,0.0,0
198063d93970f3b4,1551759570926,923,-5121.0,-5121.0,4863.0,0.0,0.0,0.0,0.0,0.0,0.0,0
198063d93970f3b4,1551759570985,924,-5121.0,-5121.0,4863.0,0.0,0.0,0.0,0.0,0.0,0.0,0
198063d93970f3b4,1551759571046,925,-5121.0,-4865.0,4863.0,0.0,0.0,0.0,0.0,0.0,0.0,0
198063d93970f3b4,1551759571136,926,-5121.0,-5121.0,4863.0,0.0,0.0,0.0,0.0,0.0,0.0,0
198063d93970f3b4,1551759571195,927,-5121.0,-4865.0,4863.0,0.0,0.0,0.0,0.0,0.0,0.0,0
198063d93970f3b4,1551759571255,928,-5121.0,-4865.0,4863.0,0.0,0.0,0.0,0.0,0.0,0.0,0
198063d93970f3b4,1551759571315,929,-5121.0,-4865.0,4863.0,0.0,0.0,0.0,0.0,0.0,0.0,0
198063d93970f3b4,1551759571375,930,-5121.0,-4865.0,4863.0,0.0,0.0,0.0,0.0,0.0,0.0,0
198063d93970f3b4,1551759571466,931,-5121.0,-4865.0,4863.0,0.0,0.0,0.0,0.0,0.0,0.0,0
198063d93970f3b4,1551759571526,932,-5121.0,-4865.0,4863.0,0.0,0.0,0.0,0.0,0.0,0.0,0
198063d93970f3b4,1551759571585,933,-5121.0,-5121.0,4863.0,0.0,0.0,0.0,0.0,0.0,0.0,0
198063d93970f3b4,1551759571646,934,-5121.0,-4865.0,4863.0,0.0,0.0,0.0,0.0,0.0,0.0,0
198063d93970f3b4,1551759571706,935,-5121.0,-4865.0,4863.0,0.0,0.0,0.0,0.0,0.0,0.0,0
198063d93970f3b4,1551759571796,936,-5121.0,-4865.0,4863.0,0.0,0.0,0.0,0.0,0.0,0.0,0
198063d93970f3b4,1551759571856,937,-5121.0,-4865.0,4863.0,0.0,0.0,0.0,0.0,0.0,0.0,0
198063d93970f3b4,1551759571915,938,-5121.0,-5121.0,4863.0,0.0,0.0,0.0,0.0,0.0,0.0,0
198063d93970f3b4,1551759571976,939,-5121.0,-5121.0,4863.0,0.0,0.0,0.0,0.0,0.0,0.0,0
198063d93970f3b4,1551759572036,940,-5121.0,-4865.0,4863.0,0.0,0.0,0.0,0.0,0.0,0.0,0
198063d93970f3b4,1551759572125,941,-5121.0,-5121.0,4863.0,0.0,0.0,0.0,0.0,0.0,0.0,0
198063d93970f3b4,1551759572185,942,-5121.0,-4865.0,4863.0,0.0,0.0,0.0,0.0,0.0,0.0,0
198063d93970f3b4,1551759572246,943,-5121.0,-4865.0,4863.0,0.0,0.0,0.0,0.0,0.0,0.0,0
198063d93970f3b4,1551759572306,944,-5121.0,-4865.0,4863.0,0.0,0.0,0.0,0.0,0.0,0.0,0
198063d93970f3b4,1551759572366,945,-5121.0,-4865.0,4863.0,0.0,0.0,0.0,0.0,0.0,0.0,0
198063d93970f3b4,1551759572456,946,-5121.0,-5121.0,4863.0,0.0,0.0,0.0,0.0,0.0,0.0,0
198063d93970f3b4,1551759572515,947,-5121.0,-4865.0,4863.0,0.0,0.0,0.0,0.0,0.0,0.0,0
198063d93970f3b4,1551759572576,948,-5121.0,-4865.0,4863.0,0.0,0.0,0.0,0.0,0.0,0.0,0
198063d93970f3b4,1551759572636,949,-5121.0,-5121.0,4863.0,0.0,0.0,0.0,0.0,0.0,0.0,0
198063d93970f3b4,1551759572696,950,-5121.0,-5121.0,4863.0,0.0,0.0,0.0,0.0,0.0,0.0,0
198063d93970f3b4,1551759572785,951,-5121.0,-5121.0,4863.0,0.0,0.0,0.0,0.0,0.0,0.0,0
198063d93970f3b4,1551759572846,952,-5121.0,-4865.0,4863.0,0.0,0.0,0.0,0.0,0.0,0.0,0
198063d93970f3b4,1551759572906,953,-5121.0,-4865.0,4863.0,0.0,0.0,0.0,0.0,0.0,0.0,0
198063d93970f3b4,1551759572966,954,-5121.0,-4865.0,4863.0,0.0,0.0,0.0,0.0,0.0,0.0,0
198063d93970f3b4,1551759573026,955,-5121.0,-4865.0,4863.0,0.0,0.0,0.0,0.0,0.0,0.0,0
198063d93970f3b4,1551759573115,956,-5121.0,-4865.0,4863.0,0.0,0.0,0.0,0.0,0.0,0.0,0
198063d93970f3b4,1551759573176,957,-5121.0,-5121.0,4863.0,0.0,0.0,0.0,0.0,0.0,0.0,0
198063d93970f3b4,1551759573235,958,-5121.0,-4865.0,4863.0,0.0,0.0,0.0,0.0,0.0,0.0,0
198063d93970f3b4,1551759573296,959,-5121.0,-4865.0,4863.0,0.0,0.0,0.0,0.0,0.0,0.0,0
198063d93970f3b4,1551759573356,960,-5121.0,-4865.0,4863.0,0.0,0.0,0.0,0.0,0.0,0.0,0
198063d93970f3b4,1551759573446,961,-5121.0,-4865.0,4863.0,0.0,0.0,0.0,0.0,0.0,0.0,0
198063d93970f3b4,1551759573505,962,-5121.0,-4865.0,4863.0,0.0,0.0,0.0,0.0,0.0,0.0,0
198063d93970f3b4,1551759573566,963,-5121.0,-4865.0,4863.0,0.0,0.0,0.0,0.0,0.0,0.0,0
198063d93970f3b4,1551759573625,964,-5121.0,-5121.0,4863.0,0.0,0.0,0.0,0.0,0.0,0.0,0
198063d93970f3b4,1551759573686,965,-5121.0,-5121.0,4863.0,0.0,0.0,0.0,0.0,0.0,0.0,0
198063d93970f3b4,1551759573776,966,-5121.0,-5121.0,4863.0,0.0,0.0,0.0,0.0,0.0,0.0,0
198063d93970f3b4,1551759573836,967,-5121.0,-4865.0,4863.0,0.0,0.0,0.0,0.0,0.0,0.0,0
198063d93970f3b4,1551759573896,968,-5121.0,-4865.0,4863.0,0.0,0.0,0.0,0.0,0.0,0.0,0
198063d93970f3b4,1551759573956,969,-5121.0,-4865.0,4863.0,0.0,0.0,0.0,0.0,0.0,0.0,0
198063d93970f3b4,1551759574046,970,-5121.0,-4865.0,4863.0,0.0,0.0,0.0,0.0,0.0,0.0,0
198063d93970f3b4,1551759574105,971,-5121.0,-5121.0,4863.0,0.0,0.0,0.0,0.0,0.0,0.0,0
198063d93970f3b4,1551759574166,972,-5121.0,-5121.0,4863.0,0.0,0.0,0.0,0.0,0.0,0.0,0
198063d93970f3b4,1551759574226,973,-5121.0,-4865.0,4863.0,0.0,0.0,0.0,0.0,0.0,0.0,0
198063d93970f3b4,1551759574285,974,-5121.0,-4865.0,4863.0,0.0,0.0,0.0,0.0,0.0,0.0,0
198063d93970f3b4,1551759574375,975,-5121.0,-4865.0,4863.0,0.0,0.0,0.0,0.0,0.0,0.0,0
198063d93970f3b4,1551759574436,976,-5121.0,-4865.0,4863.0,0.0,0.0,0.0,0.0,0.0,0.0,0
198063d93970f3b4,1551759574495,977,-5121.0,-4865.0,4863.0,0.0,0.0,0.0,0.0,0.0,0.0,0
198063d93970f3b4,1551759574555,978,-5121.0,-4865.0,4863.0,0.0,0.0,0.0,0.0,0.0,0.0,0
198063d93970f3b4,1551759574615,979,-5121.0,-5121.0,4863.0,0.0,0.0,0.0,0.0,0.0,0.0,0
198063d93970f3b4,1551759574706,980,-5121.0,-5121.0,4863.0,0.0,0.0,0.0,0.0,0.0,0.0,0
198063d93970f3b4,1551759574766,981,-5121.0,-4865.0,4863.0,0.0,0.0,0.0,0.0,0.0,0.0,0
198063d93970f3b4,1551759574826,982,-5121.0,-4865.0,4863.0,0.0,0.0,0.0,0.0,0.0,0.0,0
198063d93970f3b4,1551759574885,983,-5121.0,-4865.0,4863.0,0.0,0.0,0.0,0.0,0.0,0.0,0
198063d93970f3b4,1551759574946,984,-5121.0,-4865.0,4863.0,0.0,0.0,0.0,0.0,0.0,0.0,0
198063d93970f3b4,1551759575036,985,-5121.0,-5121.0,4863.0,0.0,0.0,0.0,0.0,0.0,0.0,0
198063d93970f3b4,1551759575096,986,-5121.0,-4865.0,4863.0,0.0,0.0,0.0,0.0,0.0,0.0,0
198063d93970f3b4,1551759575156,987,-5121.0,-4865.0,4863.0,0.0,0.0,0.0,0.0,0.0,0.0,0
198063d93970f3b4,1551759575215,988,-5121.0,-4865.0,4863.0,0.0,0.0,0.0,0.0,0.0,0.0,0
198063d93970f3b4,1551759575276,989,-5121.0,-4865.0,4863.0,0.0,0.0,0.0,0.0,0.0,0.0,0
198063d93970f3b4,1551759575365,990,-5121.0,-4865.0,4863.0,0.0,0.0,0.0,0.0,0.0,0.0,0
198063d93970f3b4,1551759575425,991,-5121.0,-5121.0,4863.0,0.0,0.0,0.0,0.0,0.0,0.0,0
198063d93970f3b4,1551759575485,992,-5121.0,-5121.0,4863.0,0.0,0.0,0.0,0.0,0.0,0.0,0
198063d93970f3b4,1551759575546,993,-5121.0,-5121.0,4863.0,0.0,0.0,0.0,0.0,0.0,0.0,0
198063d93970f3b4,1551759575605,994,-5121.0,-4865.0,4863.0,0.0,0.0,0.0,0.0,0.0,0.0,0
198063d93970f3b4,1551759575696,995,-5121.0,-4865.0,4863.0,0.0,0.0,0.0,0.0,0.0,0.0,0
198063d93970f3b4,1551759575755,996,-5121.0,-5121.0,4863.0,0.0,0.0,0.0,0.0,0.0,0.0,0
198063d93970f3b4,1551759575815,997,-5121.0,-5121.0,4863.0,0.0,0.0,0.0,0.0,0.0,0.0,0
198063d93970f3b4,1551759575875,998,-5121.0,-4865.0,4863.0,0.0,0.0,0.0,0.0,0.0,0.0,0
198063d93970f3b4,1551759575936,999,-5121.0,-5121.0,4863.0,0.0,0.0,0.0,0.0,0.0,0.0,0
198063d93970f3b4,1551759576026,1000,-5121.0,-5121.0,4863.0,0.0,0.0,0.0,0.0,0.0,0.0,0
198063d93970f3b4,1551759576085,1001,-5121.0,-4865.0,4863.0,0.0,0.0,0.0,0.0,0.0,0.0,0
198063d93970f3b4,1551759576146,1002,-5121.0,-5121.0,4863.0,0.0,0.0,0.0,0.0,0.0,0.0,0
198063d93970f3b4,1551759576205,1003,-5121.0,-5121.0,4863.0,0.0,0.0,0.0,0.0,0.0,0.0,0
198063d93970f3b4,1551759576265,1004,-5121.0,-5121.0,4863.0,0.0,0.0,0.0,0.0,0.0,0.0,0
198063d93970f3b4,1551759576355,1005,-5121.0,-5121.0,4863.0,0.0,0.0,0.0,0.0,0.0,0.0,0
198063d93970f3b4,1551759576415,1006,-5121.0,-4865.0,4863.0,0.0,0.0,0.0,0.0,0.0,0.0,0
198063d93970f3b4,1551759576476,1007,-5121.0,-4865.0,4863.0,0.0,0.0,0.0,0.0,0.0,0.0,0
198063d93970f3b4,1551759576536,1008,-5121.0,-4865.0,4863.0,0.0,0.0,0.0,0.0,0.0,0.0,0
198063d93970f3b4,1551759576596,1009,-5121.0,-5121.0,4863.0,0.0,0.0,0.0,0.0,0.0,0.0,0
198063d93970f3b4,1551759576685,1010,-5121.0,-5121.0,4863.0,0.0,0.0,0.0,0.0,0.0,0.0,0
198063d93970f3b4,1551759576745,1011,-5121.0,-4865.0,4863.0,0.0,0.0,0.0,0.0,0.0,0.0,0
198063d93970f3b4,1551759576806,1012,-5121.0,-4865.0,4863.0,0.0,0.0,0.0,0.0,0.0,0.0,0
198063d93970f3b4,1551759576866,1013,-5121.0,-5121.0,4863.0,0.0,0.0,0.0,0.0,0.0,0.0,0
198063d93970f3b4,1551759576925,1014,-5121.0,-5121.0,4863.0,0.0,0.0,0.0,0.0,0.0,0.0,0
198063d93970f3b4,1551759577015,1015,-5121.0,-4865.0,4863.0,0.0,0.0,0.0,0.0,0.0,0.0,0
198063d93970f3b4,1551759577075,1016,-5121.0,-5121.0,4863.0,0.0,0.0,0.0,0.0,0.0,0.0,0
198063d93970f3b4,1551759577135,1017,-5121.0,-5121.0,4863.0,0.0,0.0,0.0,0.0,0.0,0.0,0
198063d93970f3b4,1551759577195,1018,-5121.0,-5121.0,4863.0,0.0,0.0,0.0,0.0,0.0,0.0,0
198063d93970f3b4,1551759577255,1019,-5121.0,-5121.0,4863.0,0.0,0.0,0.0,0.0,0.0,0.0,0
198063d93970f3b4,1551759577345,1020,-5121.0,-4865.0,4863.0,0.0,0.0,0.0,0.0,0.0,0.0,0
198063d93970f3b4,1551759577405,1021,-5121.0,-4865.0,4863.0,0.0,0.0,0.0,0.0,0.0,0.0,0
198063d93970f3b4,1551759577466,1022,-5121.0,-4865.0,4863.0,0.0,0.0,0.0,0.0,0.0,0.0,0
198063d93970f3b4,1551759577525,1023,-5121.0,-4865.0,4863.0,0.0,0.0,0.0,0.0,0.0,0.0,0
198063d93970f3b4,1551759577585,1024,-5121.0,-5121.0,4863.0,0.0,0.0,0.0,0.0,0.0,0.0,0
198063d93970f3b4,1551759577676,1025,-5121.0,-4865.0,4863.0,0.0,0.0,0.0,0.0,0.0,0.0,0
198063d93970f3b4,1551759577735,1026,-5121.0,-4865.0,4863.0,0.0,0.0,0.0,0.0,0.0,0.0,0
198063d93970f3b4,1551759577795,1027,-5121.0,-4865.0,4863.0,0.0,0.0,0.0,0.0,0.0,0.0,0
198063d93970f3b4,1551759577855,1028,-5121.0,-4865.0,4863.0,0.0,0.0,0.0,0.0,0.0,0.0,0
198063d93970f3b4,1551759577915,1029,-5121.0,-4865.0,4863.0,0.0,0.0,0.0,0.0,0.0,0.0,0
198063d93970f3b4,1551759578005,1030,-5121.0,-5121.0,4863.0,0.0,0.0,0.0,0.0,0.0,0.0,0
198063d93970f3b4,1551759578066,1031,-5121.0,-4865.0,4863.0,0.0,0.0,0.0,0.0,0.0,0.0,0
198063d93970f3b4,1551759578125,1032,-5121.0,-4865.0,4863.0,0.0,0.0,0.0,0.0,0.0,0.0,0
198063d93970f3b4,1551759578185,1033,-5121.0,-4865.0,4863.0,0.0,0.0,0.0,0.0,0.0,0.0,0
198063d93970f3b4,1551759578245,1034,-5121.0,-4865.0,4863.0,0.0,0.0,0.0,0.0,0.0,0.0,0
198063d93970f3b4,1551759578335,1035,-5121.0,-4865.0,4863.0,0.0,0.0,0.0,0.0,0.0,0.0,0
198063d93970f3b4,1551759578395,1036,-5121.0,-4865.0,4863.0,0.0,0.0,0.0,0.0,0.0,0.0,0
198063d93970f3b4,1551759578456,1037,-5121.0,-4865.0,4863.0,0.0,0.0,0.0,0.0,0.0,0.0,0
198063d93970f3b4,1551759578515,1038,-5121.0,-4865.0,4863.0,0.0,0.0,0.0,0.0,0.0,0.0,0
198063d93970f3b4,1551759578576,1039,-5121.0,-4865.0,4863.0,0.0,0.0,0.0,0.0,0.0,0.0,0
198063d93970f3b4,1551759578665,1040,-5121.0,-4865.0,4863.0,0.0,0.0,0.0,0.0,0.0,0.0,0
198063d93970f3b4,1551759578725,1041,-5121.0,-5121.0,4863.0,0.0,0.0,0.0,0.0,0.0,0.0,0
198063d93970f3b4,1551759578785,1042,-5121.0,-4865.0,4863.0,0.0,0.0,0.0,0.0,0.0,0.0,0
198063d93970f3b4,1551759578845,1043,-5121.0,-5121.0,4863.0,0.0,0.0,0.0,0.0,0.0,0.0,0
198063d93970f3b4,1551759578905,1044,-5121.0,-5121.0,4863.0,0.0,0.0,0.0,0.0,0.0,0.0,0
198063d93970f3b4,1551759578995,1045,-5121.0,-4865.0,4863.0,0.0,0.0,0.0,0.0,0.0,0.0,0
198063d93970f3b4,1551759579055,1046,-5121.0,-5121.0,4863.0,0.0,0.0,0.0,0.0,0.0,0.0,0
198063d93970f3b4,1551759579145,1047,-5121.0,-4865.0,4863.0,0.0,0.0,0.0,0.0,0.0,0.0,0
198063d93970f3b4,1551759579175,1048,-5121.0,-5121.0,4863.0,0.0,0.0,0.0,0.0,0.0,0.0,0
198063d93970f3b4,1551759579235,1049,-5121.0,-4865.0,4863.0,0.0,0.0,0.0,0.0,0.0,0.0,0
198063d93970f3b4,1551759579325,1050,-5121.0,-4865.0,4863.0,0.0,0.0,0.0,0.0,0.0,0.0,0
198063d93970f3b4,1551759579384,1051,-5121.0,-4865.0,4863.0,0.0,0.0,0.0,0.0,0.0,0.0,0
198063d93970f3b4,1551759579445,1052,-5121.0,-4865.0,4863.0,0.0,0.0,0.0,0.0,0.0,0.0,0
198063d93970f3b4,1551759579505,1053,-5121.0,-5121.0,4863.0,0.0,0.0,0.0,0.0,0.0,0.0,0
198063d93970f3b4,1551759579566,1054,-5121.0,-4865.0,4863.0,0.0,0.0,0.0,0.0,0.0,0.0,0
198063d93970f3b4,1551759579655,1055,-5121.0,-4865.0,4863.0,0.0,0.0,0.0,0.0,0.0,0.0,0
198063d93970f3b4,1551759579715,1056,-5121.0,-5121.0,4863.0,0.0,0.0,0.0,0.0,0.0,0.0,0
198063d93970f3b4,1551759579775,1057,-5121.0,-4865.0,4863.0,0.0,0.0,0.0,0.0,0.0,0.0,0
198063d93970f3b4,1551759579835,1058,-5121.0,-4865.0,4863.0,0.0,0.0,0.0,0.0,0.0,0.0,0
198063d93970f3b4,1551759579895,1059,-5121.0,-4865.0,4863.0,0.0,0.0,0.0,0.0,0.0,0.0,0
198063d93970f3b4,1551759579985,1060,-5121.0,-4865.0,4863.0,0.0,0.0,0.0,0.0,0.0,0.0,0
198063d93970f3b4,1551759580046,1061,-5121.0,-4865.0,4863.0,0.0,0.0,0.0,0.0,0.0,0.0,0
198063d93970f3b4,1551759580105,1062,-5121.0,-4865.0,4863.0,0.0,0.0,0.0,0.0,0.0,0.0,0
198063d93970f3b4,1551759580166,1063,-5121.0,-4865.0,4863.0,0.0,0.0,0.0,0.0,0.0,0.0,0
198063d93970f3b4,1551759580226,1064,-5121.0,-5121.0,4863.0,0.0,0.0,0.0,0.0,0.0,0.0,0
198063d93970f3b4,1551759580315,1065,-5121.0,-5121.0,4863.0,0.0,0.0,0.0,0.0,0.0,0.0,0
198063d93970f3b4,1551759580375,1066,-5121.0,-4865.0,4863.0,0.0,0.0,0.0,0.0,0.0,0.0,0
198063d93970f3b4,1551759580435,1067,-5121.0,-4865.0,4863.0,0.0,0.0,0.0,0.0,0.0,0.0,0
198063d93970f3b4,1551759580495,1068,-5121.0,-4865.0,4863.0,0.0,0.0,0.0,0.0,0.0,0.0,0
198063d93970f3b4,1551759580555,1069,-5121.0,-4865.0,4863.0,0.0,0.0,0.0,0.0,0.0,0.0,0
198063d93970f3b4,1551759580645,1070,-5121.0,-4865.0,4863.0,0.0,0.0,0.0,0.0,0.0,0.0,0
198063d93970f3b4,1551759580705,1071,-5121.0,-5121.0,4863.0,0.0,0.0,0.0,0.0,0.0,0.0,0
198063d93970f3b4,1551759580765,1072,-5121.0,-5121.0,4863.0,0.0,0.0,0.0,0.0,0.0,0.0,0
198063d93970f3b4,1551759580826,1073,-5121.0,-4865.0,4863.0,0.0,0.0,0.0,0.0,0.0,0.0,0
198063d93970f3b4,1551759580885,1074,-5121.0,-4865.0,4863.0,0.0,0.0,0.0,0.0,0.0,0.0,0
198063d93970f3b4,1551759580975,1075,-5121.0,-4865.0,4863.0,0.0,0.0,0.0,0.0,0.0,0.0,0
198063d93970f3b4,1551759581035,1076,-5121.0,-4865.0,4863.0,0.0,0.0,0.0,0.0,0.0,0.0,0
198063d93970f3b4,1551759581095,1077,-5121.0,-5121.0,4863.0,0.0,0.0,0.0,0.0,0.0,0.0,0
198063d93970f3b4,1551759581155,1078,-5121.0,-5121.0,4863.0,0.0,0.0,0.0,0.0,0.0,0.0,0
198063d93970f3b4,1551759581215,1079,-5121.0,-4865.0,4863.0,0.0,0.0,0.0,0.0,0.0,0.0,0
198063d93970f3b4,1551759581305,1080,-5121.0,-4865.0,4863.0,0.0,0.0,0.0,0.0,0.0,0.0,0
198063d93970f3b4,1551759581365,1081,-5121.0,-4865.0,4863.0,0.0,0.0,0.0,0.0,0.0,0.0,0
198063d93970f3b4,1551759581425,1082,-5121.0,-5121.0,4863.0,0.0,0.0,0.0,0.0,0.0,0.0,0
198063d93970f3b4,1551759581485,1083,-5121.0,-4865.0,4863.0,0.0,0.0,0.0,0.0,0.0,0.0,0
198063d93970f3b4,1551759581545,1084,-5121.0,-5121.0,4863.0,0.0,0.0,0.0,0.0,0.0,0.0,0
198063d93970f3b4,1551759581635,1085,-5121.0,-4865.0,4863.0,0.0,0.0,0.0,0.0,0.0,0.0,0
198063d93970f3b4,1551759581695,1086,-5121.0,-5121.0,4863.0,0.0,0.0,0.0,0.0,0.0,0.0,0
198063d93970f3b4,1551759581755,1087,-5121.0,-4865.0,4863.0,0.0,0.0,0.0,0.0,0.0,0.0,0
198063d93970f3b4,1551759581815,1088,-5121.0,-5121.0,4863.0,0.0,0.0,0.0,0.0,0.0,0.0,0
198063d93970f3b4,1551759581875,1089,-5121.0,-5121.0,4863.0,0.0,0.0,0.0,0.0,0.0,0.0,0
198063d93970f3b4,1551759581965,1090,-5121.0,-4865.0,4863.0,0.0,0.0,0.0,0.0,0.0,0.0,0
198063d93970f3b4,1551759582025,1091,-5121.0,-4865.0,4863.0,0.0,0.0,0.0,0.0,0.0,0.0,0
198063d93970f3b4,1551759582085,1092,-5121.0,-5121.0,4863.0,0.0,0.0,0.0,0.0,0.0,0.0,0
198063d93970f3b4,1551759582145,1093,-5121.0,-5121.0,4863.0,0.0,0.0,0.0,0.0,0.0,0.0,0
198063d93970f3b4,1551759582205,1094,-5121.0,-4865.0,4863.0,0.0,0.0,0.0,0.0,0.0,0.0,0
198063d93970f3b4,1551759582295,1095,-5121.0,-5121.0,4863.0,0.0,0.0,0.0,0.0,0.0,0.0,0
198063d93970f3b4,1551759582355,1096,-5121.0,-4865.0,4863.0,0.0,0.0,0.0,0.0,0.0,0.0,0
198063d93970f3b4,1551759582415,1097,-5121.0,-4865.0,4863.0,0.0,0.0,0.0,0.0,0.0,0.0,0
198063d93970f3b4,1551759582475,1098,-5121.0,-5121.0,4863.0,0.0,0.0,0.0,0.0,0.0,0.0,0
198063d93970f3b4,1551759582535,1099,-5121.0,-5121.0,4863.0,0.0,0.0,0.0,0.0,0.0,0.0,0
198063d93970f3b4,1551759582626,1100,-5121.0,-5121.0,4863.0,0.0,0.0,0.0,0.0,0.0,0.0,0
198063d93970f3b4,1551759582685,1101,-5121.0,-4865.0,4863.0,0.0,0.0,0.0,0.0,0.0,0.0,0
198063d93970f3b4,1551759582745,1102,-5121.0,-5121.0,4863.0,0.0,0.0,0.0,0.0,0.0,0.0,0
198063d93970f3b4,1551759582805,1103,-5121.0,-5121.0,4863.0,0.0,0.0,0.0,0.0,0.0,0.0,0
198063d93970f3b4,1551759582865,1104,-5121.0,-5121.0,4863.0,0.0,0.0,0.0,0.0,0.0,0.0,0
198063d93970f3b4,1551759582955,1105,-5121.0,-4865.0,4863.0,0.0,0.0,0.0,0.0,0.0,0.0,0
198063d93970f3b4,1551759583014,1106,-5121.0,-5121.0,4863.0,0.0,0.0,0.0,0.0,0.0,0.0,0
198063d93970f3b4,1551759583075,1107,-5121.0,-4865.0,4863.0,0.0,0.0,0.0,0.0,0.0,0.0,0
198063d93970f3b4,1551759583134,1108,-5121.0,-5121.0,4863.0,0.0,0.0,0.0,0.0,0.0,0.0,0
198063d93970f3b4,1551759583195,1109,-5121.0,-4865.0,4863.0,0.0,0.0,0.0,0.0,0.0,0.0,0
198063d93970f3b4,1551759583285,1110,-5121.0,-4865.0,4863.0,0.0,0.0,0.0,0.0,0.0,0.0,0
198063d93970f3b4,1551759583345,1111,-5121.0,-5121.0,4863.0,0.0,0.0,0.0,0.0,0.0,0.0,0
198063d93970f3b4,1551759583405,1112,-5121.0,-4865.0,4863.0,0.0,0.0,0.0,0.0,0.0,0.0,0
198063d93970f3b4,1551759583465,1113,-5121.0,-5121.0,4863.0,0.0,0.0,0.0,0.0,0.0,0.0,0
198063d93970f3b4,1551759583525,1114,-5121.0,-4865.0,4863.0,0.0,0.0,0.0,0.0,0.0,0.0,0
198063d93970f3b4,1551759583615,1115,-5121.0,-5121.0,4863.0,0.0,0.0,0.0,0.0,0.0,0.0,0
198063d93970f3b4,1551759583675,1116,-5121.0,-4865.0,4863.0,0.0,0.0,0.0,0.0,0.0,0.0,0
198063d93970f3b4,1551759583735,1117,-5121.0,-4865.0,4863.0,0.0,0.0,0.0,0.0,0.0,0.0,0
198063d93970f3b4,1551759583795,1118,-5121.0,-4865.0,4863.0,0.0,0.0,0.0,0.0,0.0,0.0,0
198063d93970f3b4,1551759583856,1119,-5121.0,-4865.0,4863.0,0.0,0.0,0.0,0.0,0.0,0.0,0
198063d93970f3b4,1551759583946,1120,-5121.0,-4865.0,4863.0,0.0,0.0,0.0,0.0,0.0,0.0,0
198063d93970f3b4,1551759584005,1121,-5121.0,-5121.0,4863.0,0.0,0.0,0.0,0.0,0.0,0.0,0
198063d93970f3b4,1551759584065,1122,-5121.0,-4865.0,4863.0,0.0,0.0,0.0,0.0,0.0,0.0,0
198063d93970f3b4,1551759584125,1123,-5121.0,-4865.0,4863.0,0.0,0.0,0.0,0.0,0.0,0.0,0
198063d93970f3b4,1551759584185,1124,-5121.0,-4865.0,4863.0,0.0,0.0,0.0,0.0,0.0,0.0,0
198063d93970f3b4,1551759584275,1125,-5121.0,-5121.0,4863.0,0.0,0.0,0.0,0.0,0.0,0.0,0
198063d93970f3b4,1551759584335,1126,-5121.0,-5121.0,4863.0,0.0,0.0,0.0,0.0,0.0,0.0,0
198063d93970f3b4,1551759584395,1127,-5121.0,-4865.0,4863.0,0.0,0.0,0.0,0.0,0.0,0.0,0
198063d93970f3b4,1551759584455,1128,-5121.0,-5121.0,4863.0,0.0,0.0,0.0,0.0,0.0,0.0,0
198063d93970f3b4,1551759584515,1129,-5121.0,-4865.0,4863.0,0.0,0.0,0.0,0.0,0.0,0.0,0
198063d93970f3b4,1551759584605,1130,-5121.0,-4865.0,4863.0,0.0,0.0,0.0,0.0,0.0,0.0,0
198063d93970f3b4,1551759584665,1131,-5121.0,-5121.0,4863.0,0.0,0.0,0.0,0.0,0.0,0.0,0
198063d93970f3b4,1551759584725,1132,-5121.0,-4865.0,4863.0,0.0,0.0,0.0,0.0,0.0,0.0,0
198063d93970f3b4,1551759584785,1133,-5121.0,-4865.0,4863.0,0.0,0.0,0.0,0.0,0.0,0.0,0
198063d93970f3b4,1551759584845,1134,-5121.0,-5121.0,4863.0,0.0,0.0,0.0,0.0,0.0,0.0,0
198063d93970f3b4,1551759584935,1135,-5121.0,-4865.0,4863.0,0.0,0.0,0.0,0.0,0.0,0.0,0
198063d93970f3b4,1551759584995,1136,-5121.0,-4865.0,4863.0,0.0,0.0,0.0,0.0,0.0,0.0,0
198063d93970f3b4,1551759585055,1137,-5121.0,-5121.0,4863.0,0.0,0.0,0.0,0.0,0.0,0.0,0
198063d93970f3b4,1551759585115,1138,-5121.0,-4865.0,4863.0,0.0,0.0,0.0,0.0,0.0,0.0,0
198063d93970f3b4,1551759585175,1139,-5121.0,-5121.0,4863.0,0.0,0.0,0.0,0.0,0.0,0.0,0
198063d93970f3b4,1551759585265,1140,-5121.0,-4865.0,4863.0,0.0,0.0,0.0,0.0,0.0,0.0,0
198063d93970f3b4,1551759585325,1141,-5121.0,-4865.0,4863.0,0.0,0.0,0.0,0.0,0.0,0.0,0
198063d93970f3b4,1551759585385,1142,-5121.0,-5121.0,4863.0,0.0,0.0,0.0,0.0,0.0,0.0,0
198063d93970f3b4,1551759585446,1143,-5121.0,-5121.0,4863.0,0.0,0.0,0.0,0.0,0.0,0.0,0
198063d93970f3b4,1551759585505,1144,-5121.0,-4865.0,4863.0,0.0,0.0,0.0,0.0,0.0,0.0,0
198063d93970f3b4,1551759585595,1145,-5121.0,-4865.0,4863.0,0.0,0.0,0.0,0.0,0.0,0.0,0
198063d93970f3b4,1551759585655,1146,-5121.0,-4865.0,4863.0,0.0,0.0,0.0,0.0,0.0,0.0,0
198063d93970f3b4,1551759585715,1147,-5121.0,-5121.0,4863.0,0.0,0.0,0.0,0.0,0.0,0.0,0
198063d93970f3b4,1551759585775,1148,-5121.0,-4865.0,4863.0,0.0,0.0,0.0,0.0,0.0,0.0,0
198063d93970f3b4,1551759585835,1149,-5121.0,-5121.0,4863.0,0.0,0.0,0.0,0.0,0.0,0.0,0
198063d93970f3b4,1551759585925,1150,-5121.0,-5121.0,4863.0,0.0,0.0,0.0,0.0,0.0,0.0,0
198063d93970f3b4,1551759585985,1151,-5121.0,-4865.0,4863.0,0.0,0.0,0.0,0.0,0.0,0.0,0
198063d93970f3b4,1551759586045,1152,-5121.0,-5121.0,4863.0,0.0,0.0,0.0,0.0,0.0,0.0,0
198063d93970f3b4,1551759586105,1153,-5121.0,-4865.0,4863.0,0.0,0.0,0.0,0.0,0.0,0.0,0
198063d93970f3b4,1551759586165,1154,-5121.0,-4865.0,4863.0,0.0,0.0,0.0,0.0,0.0,0.0,0
198063d93970f3b4,1551759586255,1155,-5121.0,-5121.0,4863.0,0.0,0.0,0.0,0.0,0.0,0.0,0
198063d93970f3b4,1551759586315,1156,-5121.0,-4865.0,4863.0,0.0,0.0,0.0,0.0,0.0,0.0,0
198063d93970f3b4,1551759586375,1157,-5121.0,-4865.0,4863.0,0.0,0.0,0.0,0.0,0.0,0.0,0
198063d93970f3b4,1551759586435,1158,-5121.0,-5121.0,4863.0,0.0,0.0,0.0,0.0,0.0,0.0,0
198063d93970f3b4,1551759586495,1159,-5121.0,-5121.0,4863.0,0.0,0.0,0.0,0.0,0.0,0.0,0
198063d93970f3b4,1551759586585,1160,-5121.0,-5121.0,4863.0,0.0,0.0,0.0,0.0,0.0,0.0,0
198063d93970f3b4,1551759586645,1161,-5121.0,-4865.0,4863.0,0.0,0.0,0.0,0.0,0.0,0.0,0
198063d93970f3b4,1551759586705,1162,-5121.0,-4865.0,4863.0,0.0,0.0,0.0,0.0,0.0,0.0,0
198063d93970f3b4,1551759586765,1163,-5121.0,-5121.0,4863.0,0.0,0.0,0.0,0.0,0.0,0.0,0
198063d93970f3b4,1551759586825,1164,-5121.0,-5121.0,4863.0,0.0,0.0,0.0,0.0,0.0,0.0,0
198063d93970f3b4,1551759586915,1165,-5121.0,-5121.0,4863.0,0.0,0.0,0.0,0.0,0.0,0.0,0
198063d93970f3b4,1551759586975,1166,-5121.0,-4865.0,4863.0,0.0,0.0,0.0,0.0,0.0,0.0,0
198063d93970f3b4,1551759587035,1167,-5121.0,-4865.0,4863.0,0.0,0.0,0.0,0.0,0.0,0.0,0
198063d93970f3b4,1551759587095,1168,-5121.0,-5121.0,4863.0,0.0,0.0,0.0,0.0,0.0,0.0,0
198063d93970f3b4,1551759587155,1169,-5121.0,-4865.0,4863.0,0.0,0.0,0.0,0.0,0.0,0.0,0
198063d93970f3b4,1551759587245,1170,-5121.0,-5121.0,4863.0,0.0,0.0,0.0,0.0,0.0,0.0,0
198063d93970f3b4,1551759587305,1171,-5121.0,-4865.0,4863.0,0.0,0.0,0.0,0.0,0.0,0.0,0
198063d93970f3b4,1551759587366,1172,-5121.0,-4865.0,4863.0,0.0,0.0,0.0,0.0,0.0,0.0,0
198063d93970f3b4,1551759587425,1173,-5121.0,-4865.0,4863.0,0.0,0.0,0.0,0.0,0.0,0.0,0
198063d93970f3b4,1551759587485,1174,-5121.0,-5121.0,4863.0,0.0,0.0,0.0,0.0,0.0,0.0,0
198063d93970f3b4,1551759587575,1175,-5121.0,-4865.0,4863.0,0.0,0.0,0.0,0.0,0.0,0.0,0
198063d93970f3b4,1551759587635,1176,-5121.0,-4865.0,4863.0,0.0,0.0,0.0,0.0,0.0,0.0,0
198063d93970f3b4,1551759587695,1177,-5121.0,-4865.0,4863.0,0.0,0.0,0.0,0.0,0.0,0.0,0
198063d93970f3b4,1551759587755,1178,-5121.0,-5121.0,4863.0,0.0,0.0,0.0,0.0,0.0,0.0,0
198063d93970f3b4,1551759587815,1179,-5121.0,-4865.0,4863.0,0.0,0.0,0.0,0.0,0.0,0.0,0
198063d93970f3b4,1551759587904,1180,-5121.0,-4865.0,4863.0,0.0,0.0,0.0,0.0,0.0,0.0,0
198063d93970f3b4,1551759587906,1181,-5121.0,-4865.0,4863.0,0.0,0.0,0.0,0.0,0.0,0.0,0
198063d93970f3b4,1551759587965,1182,-5121.0,-4865.0,4863.0,0.0,0.0,0.0,0.0,0.0,0.0,0
198063d93970f3b4,1551759588025,1183,-5121.0,-5121.0,4863.0,0.0,0.0,0.0,0.0,0.0,0.0,0
198063d93970f3b4,1551759588085,1184,-5121.0,-4865.0,4863.0,0.0,0.0,0.0,0.0,0.0,0.0,0
198063d93970f3b4,1551759588145,1185,-5121.0,-5121.0,4863.0,0.0,0.0,0.0,0.0,0.0,0.0,0
198063d93970f3b4,1551759588235,1186,-5121.0,-5121.0,4863.0,0.0,0.0,0.0,0.0,0.0,0.0,0
198063d93970f3b4,1551759588295,1187,-5121.0,-4865.0,4863.0,0.0,0.0,0.0,0.0,0.0,0.0,0
198063d93970f3b4,1551759588355,1188,-5121.0,-4865.0,4863.0,0.0,0.0,0.0,0.0,0.0,0.0,0
198063d93970f3b4,1551759588415,1189,-5121.0,-4865.0,4863.0,0.0,0.0,0.0,0.0,0.0,0.0,0
198063d93970f3b4,1551759588475,1190,-5121.0,-5121.0,4863.0,0.0,0.0,0.0,0.0,0.0,0.0,0
198063d93970f3b4,1551759588565,1191,-5121.0,-4865.0,4863.0,0.0,0.0,0.0,0.0,0.0,0.0,0
198063d93970f3b4,1551759588626,1192,-5121.0,-4865.0,4863.0,0.0,0.0,0.0,0.0,0.0,0.0,0
198063d93970f3b4,1551759588685,1193,-5121.0,-4865.0,4863.0,0.0,0.0,0.0,0.0,0.0,0.0,0
198063d93970f3b4,1551759588745,1194,-5121.0,-4865.0,4863.0,0.0,0.0,0.0,0.0,0.0,0.0,0
198063d93970f3b4,1551759588805,1195,-5121.0,-4865.0,4863.0,0.0,0.0,0.0,0.0,0.0,0.0,0
198063d93970f3b4,1551759588895,1196,-5121.0,-4865.0,4863.0,0.0,0.0,0.0,0.0,0.0,0.0,0
198063d93970f3b4,1551759588955,1197,-5121.0,-5121.0,4863.0,0.0,0.0,0.0,0.0,0.0,0.0,0
198063d93970f3b4,1551759589015,1198,-5121.0,-4865.0,4863.0,0.0,0.0,0.0,0.0,0.0,0.0,0
198063d93970f3b4,1551759589075,1199,-5121.0,-4865.0,4863.0,0.0,0.0,0.0,0.0,0.0,0.0,0
198063d93970f3b4,1551759589135,1200,-5121.0,-4865.0,4863.0,0.0,0.0,0.0,0.0,0.0,0.0,0
198063d93970f3b4,1551759589225,1201,-5121.0,-4865.0,4863.0,0.0,0.0,0.0,0.0,0.0,0.0,0
198063d93970f3b4,1551759589285,1202,-5121.0,-4865.0,4863.0,0.0,0.0,0.0,0.0,0.0,0.0,0
198063d93970f3b4,1551759589345,1203,-5121.0,-4865.0,4863.0,0.0,0.0,0.0,0.0,0.0,0.0,0
198063d93970f3b4,1551759589405,1204,-5121.0,-5121.0,4863.0,0.0,0.0,0.0,0.0,0.0,0.0,0
198063d93970f3b4,1551759589465,1205,-5121.0,-4865.0,4863.0,0.0,0.0,0.0,0.0,0.0,0.0,0
198063d93970f3b4,1551759589555,1206,-5121.0,-4865.0,4863.0,0.0,0.0,0.0,0.0,0.0,0.0,0
198063d93970f3b4,1551759589615,1207,-5121.0,-4865.0,4863.0,0.0,0.0,0.0,0.0,0.0,0.0,0
198063d93970f3b4,1551759589675,1208,-5121.0,-5121.0,4863.0,0.0,0.0,0.0,0.0,0.0,0.0,0
198063d93970f3b4,1551759589735,1209,-5121.0,-5121.0,4863.0,0.0,0.0,0.0,0.0,0.0,0.0,0
198063d93970f3b4,1551759589795,1210,-5121.0,-5121.0,4863.0,0.0,0.0,0.0,0.0,0.0,0.0,0
198063d93970f3b4,1551759589885,1211,-5121.0,-4865.0,4863.0,0.0,0.0,0.0,0.0,0.0,0.0,0
198063d93970f3b4,1551759589945,1212,-5121.0,-4865.0,4863.0,0.0,0.0,0.0,0.0,0.0,0.0,0
198063d93970f3b4,1551759590005,1213,-5121.0,-5121.0,4863.0,0.0,0.0,0.0,0.0,0.0,0.0,0
198063d93970f3b4,1551759590065,1214,-5121.0,-5121.0,4863.0,0.0,0.0,0.0,0.0,0.0,0.0,0
198063d93970f3b4,1551759590125,1215,-5121.0,-4865.0,4863.0,0.0,0.0,0.0,0.0,0.0,0.0,0
198063d93970f3b4,1551759590216,1216,-5121.0,-5121.0,4863.0,0.0,0.0,0.0,0.0,0.0,0.0,0
198063d93970f3b4,1551759590275,1217,-5121.0,-4865.0,4863.0,0.0,0.0,0.0,0.0,0.0,0.0,0
198063d93970f3b4,1551759590335,1218,-5121.0,-4865.0,4863.0,0.0,0.0,0.0,0.0,0.0,0.0,0
198063d93970f3b4,1551759590395,1219,-5121.0,-4865.0,4863.0,0.0,0.0,0.0,0.0,0.0,0.0,0
198063d93970f3b4,1551759590455,1220,-5121.0,-5121.0,4863.0,0.0,0.0,0.0,0.0,0.0,0.0,0
198063d93970f3b4,1551759590545,1221,-5121.0,-4865.0,4863.0,0.0,0.0,0.0,0.0,0.0,0.0,0
198063d93970f3b4,1551759590605,1222,-5121.0,-4865.0,4863.0,0.0,0.0,0.0,0.0,0.0,0.0,0
198063d93970f3b4,1551759590665,1223,-5121.0,-4865.0,4863.0,0.0,0.0,0.0,0.0,0.0,0.0,0
198063d93970f3b4,1551759590725,1224,-5121.0,-4865.0,4863.0,0.0,0.0,0.0,0.0,0.0,0.0,0
198063d93970f3b4,1551759590785,1225,-5121.0,-4865.0,4863.0,0.0,0.0,0.0,0.0,0.0,0.0,0
198063d93970f3b4,1551759590875,1226,-5121.0,-4865.0,4863.0,0.0,0.0,0.0,0.0,0.0,0.0,0
198063d93970f3b4,1551759590935,1227,-5121.0,-4865.0,4863.0,0.0,0.0,0.0,0.0,0.0,0.0,0
198063d93970f3b4,1551759590995,1228,-5121.0,-4865.0,4863.0,0.0,0.0,0.0,0.0,0.0,0.0,0
198063d93970f3b4,1551759591055,1229,-5121.0,-4865.0,4863.0,0.0,0.0,0.0,0.0,0.0,0.0,0
198063d93970f3b4,1551759591115,1230,-5121.0,-5121.0,4863.0,0.0,0.0,0.0,0.0,0.0,0.0,0
198063d93970f3b4,1551759591204,1231,-5121.0,-4865.0,4863.0,0.0,0.0,0.0,0.0,0.0,0.0,0
198063d93970f3b4,1551759591265,1232,-5121.0,-4865.0,4863.0,0.0,0.0,0.0,0.0,0.0,0.0,0
198063d93970f3b4,1551759591325,1233,-5121.0,-4865.0,4863.0,0.0,0.0,0.0,0.0,0.0,0.0,0
198063d93970f3b4,1551759591385,1234,-5121.0,-4865.0,4863.0,0.0,0.0,0.0,0.0,0.0,0.0,0
198063d93970f3b4,1551759591445,1235,-5121.0,-4865.0,4863.0,0.0,0.0,0.0,0.0,0.0,0.0,0
198063d93970f3b4,1551759591535,1236,-5121.0,-4865.0,4863.0,0.0,0.0,0.0,0.0,0.0,0.0,0
198063d93970f3b4,1551759591595,1237,-5121.0,-5121.0,4863.0,0.0,0.0,0.0,0.0,0.0,0.0,0
198063d93970f3b4,1551759591655,1238,-5121.0,-4865.0,4863.0,0.0,0.0,0.0,0.0,0.0,0.0,0
198063d93970f3b4,1551759591715,1239,-5121.0,-4865.0,4863.0,0.0,0.0,0.0,0.0,0.0,0.0,0
198063d93970f3b4,1551759591775,1240,-5121.0,-4865.0,4863.0,0.0,0.0,0.0,0.0,0.0,0.0,0
198063d93970f3b4,1551759591865,1241,-5121.0,-5121.0,4863.0,0.0,0.0,0.0,0.0,0.0,0.0,0
198063d93970f3b4,1551759591925,1242,-5121.0,-5121.0,4863.0,0.0,0.0,0.0,0.0,0.0,0.0,0
198063d93970f3b4,1551759591985,1243,-5121.0,-5121.0,4863.0,0.0,0.0,0.0,0.0,0.0,0.0,0
198063d93970f3b4,1551759592045,1244,-5121.0,-4865.0,4863.0,0.0,0.0,0.0,0.0,0.0,0.0,0
198063d93970f3b4,1551759592105,1245,-5121.0,-4865.0,4863.0,0.0,0.0,0.0,0.0,0.0,0.0,0
198063d93970f3b4,1551759592194,1246,-5121.0,-4865.0,4863.0,0.0,0.0,0.0,0.0,0.0,0.0,0
198063d93970f3b4,1551759592255,1247,-5121.0,-4865.0,4863.0,0.0,0.0,0.0,0.0,0.0,0.0,0
198063d93970f3b4,1551759592315,1248,-5121.0,-5121.0,4863.0,0.0,0.0,0.0,0.0,0.0,0.0,0
198063d93970f3b4,1551759592375,1249,-5121.0,-4865.0,4863.0,0.0,0.0,0.0,0.0,0.0,0.0,0
198063d93970f3b4,1551759592435,1250,-5121.0,-5121.0,4863.0,0.0,0.0,0.0,0.0,0.0,0.0,0
198063d93970f3b4,1551759592525,1251,-5121.0,-4865.0,4863.0,0.0,0.0,0.0,0.0,0.0,0.0,0
198063d93970f3b4,1551759592585,1252,-5121.0,-5121.0,4863.0,0.0,0.0,0.0,0.0,0.0,0.0,0
198063d93970f3b4,1551759592645,1253,-5121.0,-4865.0,4863.0,0.0,0.0,0.0,0.0,0.0,0.0,0
198063d93970f3b4,1551759592705,1254,-5121.0,-5121.0,4863.0,0.0,0.0,0.0,0.0,0.0,0.0,0
198063d93970f3b4,1551759592765,1255,-5121.0,-4865.0,4863.0,0.0,0.0,0.0,0.0,0.0,0.0,0
198063d93970f3b4,1551759592855,1256,-5121.0,-4865.0,4863.0,0.0,0.0,0.0,0.0,0.0,0.0,0
198063d93970f3b4,1551759592915,1257,-5121.0,-4865.0,4863.0,0.0,0.0,0.0,0.0,0.0,0.0,0
198063d93970f3b4,1551759592975,1258,-5121.0,-4865.0,4863.0,0.0,0.0,0.0,0.0,0.0,0.0,0
198063d93970f3b4,1551759593035,1259,-5121.0,-5121.0,4863.0,0.0,0.0,0.0,0.0,0.0,0.0,0
198063d93970f3b4,1551759593095,1260,-5121.0,-4865.0,4863.0,0.0,0.0,0.0,0.0,0.0,0.0,0
198063d93970f3b4,1551759593184,1261,-5121.0,-4865.0,4863.0,0.0,0.0,0.0,0.0,0.0,0.0,0
198063d93970f3b4,1551759593245,1262,-5121.0,-4865.0,4863.0,0.0,0.0,0.0,0.0,0.0,0.0,0
198063d93970f3b4,1551759593305,1263,-5121.0,-4865.0,4863.0,0.0,0.0,0.0,0.0,0.0,0.0,0
198063d93970f3b4,1551759593365,1264,-5121.0,-4865.0,4863.0,0.0,0.0,0.0,0.0,0.0,0.0,0
198063d93970f3b4,1551759593425,1265,-5121.0,-5121.0,4863.0,0.0,0.0,0.0,0.0,0.0,0.0,0
198063d93970f3b4,1551759593515,1266,-5121.0,-5121.0,4863.0,0.0,0.0,0.0,0.0,0.0,0.0,0
198063d93970f3b4,1551759593575,1267,-5121.0,-4865.0,4863.0,0.0,0.0,0.0,0.0,0.0,0.0,0
198063d93970f3b4,1551759593635,1268,-5121.0,-4865.0,4863.0,0.0,0.0,0.0,0.0,0.0,0.0,0
198063d93970f3b4,1551759593695,1269,-5121.0,-5121.0,4863.0,0.0,0.0,0.0,0.0,0.0,0.0,0
198063d93970f3b4,1551759593755,1270,-5121.0,-4865.0,4863.0,0.0,0.0,0.0,0.0,0.0,0.0,0
198063d93970f3b4,1551759593845,1271,-5121.0,-4865.0,4863.0,0.0,0.0,0.0,0.0,0.0,0.0,0
198063d93970f3b4,1551759593905,1272,-5121.0,-4865.0,4863.0,0.0,0.0,0.0,0.0,0.0,0.0,0
198063d93970f3b4,1551759593965,1273,-5121.0,-4865.0,4863.0,0.0,0.0,0.0,0.0,0.0,0.0,0
198063d93970f3b4,1551759594025,1274,-5121.0,-4865.0,4863.0,0.0,0.0,0.0,0.0,0.0,0.0,0
198063d93970f3b4,1551759594085,1275,-5121.0,-4865.0,4863.0,0.0,0.0,0.0,0.0,0.0,0.0,0
198063d93970f3b4,1551759594175,1276,-5121.0,-4865.0,4863.0,0.0,0.0,0.0,0.0,0.0,0.0,0
198063d93970f3b4,1551759594235,1277,-5121.0,-4865.0,4863.0,0.0,0.0,0.0,0.0,0.0,0.0,0
198063d93970f3b4,1551759594295,1278,-5121.0,-5121.0,4863.0,0.0,0.0,0.0,0.0,0.0,0.0,0
198063d93970f3b4,1551759594355,1279,-5121.0,-4865.0,4863.0,0.0,0.0,0.0,0.0,0.0,0.0,0
198063d93970f3b4,1551759594415,1280,-5121.0,-4865.0,4863.0,0.0,0.0,0.0,0.0,0.0,0.0,0
198063d93970f3b4,1551759594505,1281,-5121.0,-4865.0,4863.0,0.0,0.0,0.0,0.0,0.0,0.0,0
198063d93970f3b4,1551759594565,1282,-5121.0,-4865.0,4863.0,0.0,0.0,0.0,0.0,0.0,0.0,0
198063d93970f3b4,1551759594625,1283,-5121.0,-4865.0,4863.0,0.0,0.0,0.0,0.0,0.0,0.0,0
198063d93970f3b4,1551759594685,1284,-5121.0,-5121.0,4863.0,0.0,0.0,0.0,0.0,0.0,0.0,0
198063d93970f3b4,1551759594745,1285,-5121.0,-5121.0,4863.0,0.0,0.0,0.0,0.0,0.0,0.0,0
198063d93970f3b4,1551759594835,1286,-5121.0,-5121.0,4863.0,0.0,0.0,0.0,0.0,0.0,0.0,0
198063d93970f3b4,1551759594895,1287,-5121.0,-4865.0,4863.0,0.0,0.0,0.0,0.0,0.0,0.0,0
198063d93970f3b4,1551759594955,1288,-5121.0,-5121.0,4863.0,0.0,0.0,0.0,0.0,0.0,0.0,0
198063d93970f3b4,1551759595015,1289,-5121.0,-4865.0,4863.0,0.0,0.0,0.0,0.0,0.0,0.0,0
198063d93970f3b4,1551759595075,1290,-5121.0,-5121.0,4863.0,0.0,0.0,0.0,0.0,0.0,0.0,0
198063d93970f3b4,1551759595165,1291,-5121.0,-4865.0,4863.0,0.0,0.0,0.0,0.0,0.0,0.0,0
198063d93970f3b4,1551759595225,1292,-5121.0,-4865.0,4863.0,0.0,0.0,0.0,0.0,0.0,0.0,0
198063d93970f3b4,1551759595284,1293,-5121.0,-5121.0,4863.0,0.0,0.0,0.0,0.0,0.0,0.0,0
198063d93970f3b4,1551759595345,1294,-5121.0,-4865.0,4863.0,0.0,0.0,0.0,0.0,0.0,0.0,0
198063d93970f3b4,1551759595405,1295,-5121.0,-4865.0,4863.0,0.0,0.0,0.0,0.0,0.0,0.0,0
198063d93970f3b4,1551759595495,1296,-5121.0,-4865.0,4863.0,0.0,0.0,0.0,0.0,0.0,0.0,0
198063d93970f3b4,1551759595555,1297,-5121.0,-4865.0,4863.0,0.0,0.0,0.0,0.0,0.0,0.0,0
198063d93970f3b4,1551759595615,1298,-5121.0,-5121.0,4863.0,0.0,0.0,0.0,0.0,0.0,0.0,0
198063d93970f3b4,1551759595675,1299,-5121.0,-4865.0,4863.0,0.0,0.0,0.0,0.0,0.0,0.0,0
198063d93970f3b4,1551759595735,1300,-5121.0,-5121.0,4863.0,0.0,0.0,0.0,0.0,0.0,0.0,0
198063d93970f3b4,1551759595825,1301,-5121.0,-4865.0,4863.0,0.0,0.0,0.0,0.0,0.0,0.0,0
198063d93970f3b4,1551759595885,1302,-5121.0,-4865.0,4863.0,0.0,0.0,0.0,0.0,0.0,0.0,0
198063d93970f3b4,1551759595945,1303,-5121.0,-5121.0,4863.0,0.0,0.0,0.0,0.0,0.0,0.0,0
198063d93970f3b4,1551759596005,1304,-5121.0,-5121.0,4863.0,0.0,0.0,0.0,0.0,0.0,0.0,0
198063d93970f3b4,1551759596065,1305,-5121.0,-5121.0,4863.0,0.0,0.0,0.0,0.0,0.0,0.0,0
198063d93970f3b4,1551759596155,1306,-5121.0,-4865.0,4863.0,0.0,0.0,0.0,0.0,0.0,0.0,0
198063d93970f3b4,1551759596214,1307,-5121.0,-4865.0,4863.0,0.0,0.0,0.0,0.0,0.0,0.0,0
198063d93970f3b4,1551759596275,1308,-5121.0,-4865.0,4863.0,0.0,0.0,0.0,0.0,0.0,0.0,0
198063d93970f3b4,1551759596335,1309,-5121.0,-5121.0,4863.0,0.0,0.0,0.0,0.0,0.0,0.0,0
198063d93970f3b4,1551759596395,1310,-5121.0,-4865.0,4863.0,0.0,0.0,0.0,0.0,0.0,0.0,0
198063d93970f3b4,1551759596484,1311,-5121.0,-4865.0,4863.0,0.0,0.0,0.0,0.0,0.0,0.0,0
198063d93970f3b4,1551759596545,1312,-5121.0,-4865.0,4863.0,0.0,0.0,0.0,0.0,0.0,0.0,0
198063d93970f3b4,1551759596605,1313,-5121.0,-4865.0,4863.0,0.0,0.0,0.0,0.0,0.0,0.0,0
198063d93970f3b4,1551759596665,1314,-5121.0,-4865.0,4863.0,0.0,0.0,0.0,0.0,0.0,0.0,0
198063d93970f3b4,1551759596725,1315,-5121.0,-5121.0,4863.0,0.0,0.0,0.0,0.0,0.0,0.0,0
198063d93970f3b4,1551759596815,1316,-5121.0,-5121.0,4863.0,0.0,0.0,0.0,0.0,0.0,0.0,0
198063d93970f3b4,1551759596875,1317,-5121.0,-4865.0,4863.0,0.0,0.0,0.0,0.0,0.0,0.0,0
198063d93970f3b4,1551759596935,1318,-5121.0,-4865.0,4863.0,0.0,0.0,0.0,0.0,0.0,0.0,0
198063d93970f3b4,1551759596995,1319,-5121.0,-4865.0,4863.0,0.0,0.0,0.0,0.0,0.0,0.0,0
198063d93970f3b4,1551759597055,1320,-5121.0,-5121.0,4863.0,0.0,0.0,0.0,0.0,0.0,0.0,0
198063d93970f3b4,1551759597145,1321,-5121.0,-5121.0,4863.0,0.0,0.0,0.0,0.0,0.0,0.0,0
198063d93970f3b4,1551759597204,1322,-5121.0,-5121.0,4863.0,0.0,0.0,0.0,0.0,0.0,0.0,0
198063d93970f3b4,1551759597265,1323,-5121.0,-4865.0,4863.0,0.0,0.0,0.0,0.0,0.0,0.0,0
198063d93970f3b4,1551759597325,1324,-5121.0,-4865.0,4863.0,0.0,0.0,0.0,0.0,0.0,0.0,0
198063d93970f3b4,1551759597385,1325,-5121.0,-4865.0,4863.0,0.0,0.0,0.0,0.0,0.0,0.0,0
198063d93970f3b4,1551759597475,1326,-5121.0,-5121.0,4863.0,0.0,0.0,0.0,0.0,0.0,0.0,0
198063d93970f3b4,1551759597535,1327,-5121.0,-4865.0,4863.0,0.0,0.0,0.0,0.0,0.0,0.0,0
198063d93970f3b4,1551759597595,1328,-5121.0,-4865.0,4863.0,0.0,0.0,0.0,0.0,0.0,0.0,0
198063d93970f3b4,1551759597655,1329,-5121.0,-4865.0,4863.0,0.0,0.0,0.0,0.0,0.0,0.0,0
198063d93970f3b4,1551759597714,1330,-5121.0,-4865.0,4863.0,0.0,0.0,0.0,0.0,0.0,0.0,0
198063d93970f3b4,1551759597804,1331,-5121.0,-4865.0,4863.0,0.0,0.0,0.0,0.0,0.0,0.0,0
198063d93970f3b4,1551759597865,1332,-5121.0,-4865.0,4863.0,0.0,0.0,0.0,0.0,0.0,0.0,0
198063d93970f3b4,1551759597924,1333,-5121.0,-5121.0,4863.0,0.0,0.0,0.0,0.0,0.0,0.0,0
198063d93970f3b4,1551759597985,1334,-5121.0,-5121.0,4863.0,0.0,0.0,0.0,0.0,0.0,0.0,0
198063d93970f3b4,1551759598045,1335,-5121.0,-5121.0,4863.0,0.0,0.0,0.0,0.0,0.0,0.0,0
198063d93970f3b4,1551759598135,1336,-5121.0,-5121.0,4863.0,0.0,0.0,0.0,0.0,0.0,0.0,0
198063d93970f3b4,1551759598194,1337,-5121.0,-4865.0,4863.0,0.0,0.0,0.0,0.0,0.0,0.0,0
198063d93970f3b4,1551759598255,1338,-5121.0,-4865.0,4863.0,0.0,0.0,0.0,0.0,0.0,0.0,0
198063d93970f3b4,1551759598314,1339,-5121.0,-4865.0,5119.0,0.0,0.0,0.0,0.0,0.0,0.0,0
198063d93970f3b4,1551759598375,1340,-5121.0,-4865.0,5119.0,0.0,0.0,0.0,0.0,0.0,0.0,0
198063d93970f3b4,1551759598465,1341,-5121.0,-5121.0,4863.0,0.0,0.0,0.0,0.0,0.0,0.0,0
198063d93970f3b4,1551759598525,1342,-5121.0,-5121.0,4863.0,0.0,0.0,0.0,0.0,0.0,0.0,0
198063d93970f3b4,1551759598584,1343,-5121.0,-4865.0,4863.0,0.0,0.0,0.0,0.0,0.0,0.0,0
198063d93970f3b4,1551759598645,1344,-5121.0,-4865.0,4863.0,0.0,0.0,0.0,0.0,0.0,0.0,0
198063d93970f3b4,1551759598705,1345,-5121.0,-5121.0,4863.0,0.0,0.0,0.0,0.0,0.0,0.0,0
198063d93970f3b4,1551759598795,1346,-5121.0,-4865.0,4863.0,0.0,0.0,0.0,0.0,0.0,0.0,0
198063d93970f3b4,1551759599497,1347,-5121.0,-5121.0,4863.0,0.0,0.0,0.0,0.0,0.0,0.0,0
198063d93970f3b4,1551759599557,1348,-5121.0,-5121.0,4863.0,0.0,0.0,0.0,0.0,0.0,0.0,0
198063d93970f3b4,1551759599617,1349,-5121.0,-4865.0,4863.0,0.0,0.0,0.0,0.0,0.0,0.0,0
198063d93970f3b4,1551759599707,1350,-5121.0,-4865.0,4863.0,0.0,0.0,0.0,0.0,0.0,0.0,0
198063d93970f3b4,1551759599767,1351,-5121.0,-4865.0,4863.0,0.0,0.0,0.0,0.0,0.0,0.0,0
198063d93970f3b4,1551759599827,1352,-5121.0,-4865.0,4863.0,0.0,0.0,0.0,0.0,0.0,0.0,0
198063d93970f3b4,1551759599887,1353,-5121.0,-4865.0,4863.0,0.0,0.0,0.0,0.0,0.0,0.0,0
198063d93970f3b4,1551759599947,1354,-5121.0,-4865.0,4863.0,0.0,0.0,0.0,0.0,0.0,0.0,0
198063d93970f3b4,1551759600037,1355,-5121.0,-5121.0,4863.0,0.0,0.0,0.0,0.0,0.0,0.0,0
198063d93970f3b4,1551759600097,1356,-5121.0,-4865.0,4863.0,0.0,0.0,0.0,0.0,0.0,0.0,0
198063d93970f3b4,1551759600157,1357,-5121.0,-4865.0,4863.0,0.0,0.0,0.0,0.0,0.0,0.0,0
198063d93970f3b4,1551759600217,1358,-5121.0,-4865.0,4863.0,0.0,0.0,0.0,0.0,0.0,0.0,0
198063d93970f3b4,1551759600277,1359,-5121.0,-4865.0,4863.0,0.0,0.0,0.0,0.0,0.0,0.0,0
198063d93970f3b4,1551759600367,1360,-5121.0,-5121.0,4863.0,0.0,0.0,0.0,0.0,0.0,0.0,0
198063d93970f3b4,1551759600428,1361,-5121.0,-4865.0,4863.0,0.0,0.0,0.0,0.0,0.0,0.0,0
198063d93970f3b4,1551759600487,1362,-5121.0,-4865.0,4863.0,0.0,0.0,0.0,0.0,0.0,0.0,0
198063d93970f3b4,1551759600547,1363,-5121.0,-5121.0,4863.0,0.0,0.0,0.0,0.0,0.0,0.0,0
198063d93970f3b4,1551759600607,1364,-5121.0,-4865.0,4863.0,0.0,0.0,0.0,0.0,0.0,0.0,0
198063d93970f3b4,1551759600697,1365,-5121.0,-4865.0,4863.0,0.0,0.0,0.0,0.0,0.0,0.0,0
198063d93970f3b4,1551759600757,1366,-5121.0,-5121.0,4863.0,0.0,0.0,0.0,0.0,0.0,0.0,0
198063d93970f3b4,1551759600816,1367,-5121.0,-4865.0,4863.0,0.0,0.0,0.0,0.0,0.0,0.0,0
198063d93970f3b4,1551759600818,1368,-5121.0,-4865.0,4863.0,0.0,0.0,0.0,0.0,0.0,0.0,0
198063d93970f3b4,1551759600877,1369,-5121.0,-4865.0,4863.0,0.0,0.0,0.0,0.0,0.0,0.0,0
198063d93970f3b4,1551759600937,1370,-5121.0,-4865.0,4863.0,0.0,0.0,0.0,0.0,0.0,0.0,0
198063d93970f3b4,1551759601026,1371,-5121.0,-4865.0,4863.0,0.0,0.0,0.0,0.0,0.0,0.0,0
198063d93970f3b4,1551759601087,1372,-5121.0,-5121.0,4863.0,0.0,0.0,0.0,0.0,0.0,0.0,0
198063d93970f3b4,1551759601147,1373,-5121.0,-4865.0,4863.0,0.0,0.0,0.0,0.0,0.0,0.0,0
198063d93970f3b4,1551759601207,1374,-5121.0,-4865.0,4863.0,0.0,0.0,0.0,0.0,0.0,0.0,0
198063d93970f3b4,1551759601267,1375,-5121.0,-4865.0,4863.0,0.0,0.0,0.0,0.0,0.0,0.0,0
198063d93970f3b4,1551759601357,1376,-5121.0,-4865.0,4863.0,0.0,0.0,0.0,0.0,0.0,0.0,0
198063d93970f3b4,1551759601417,1377,-5121.0,-4865.0,4863.0,0.0,0.0,0.0,0.0,0.0,0.0,0
198063d93970f3b4,1551759601477,1378,-5121.0,-4865.0,4863.0,0.0,0.0,0.0,0.0,0.0,0.0,0
198063d93970f3b4,1551759601537,1379,-5121.0,-5121.0,4863.0,0.0,0.0,0.0,0.0,0.0,0.0,0
198063d93970f3b4,1551759601597,1380,-5121.0,-4865.0,4863.0,0.0,0.0,0.0,0.0,0.0,0.0,0
198063d93970f3b4,1551759601687,1381,-5121.0,-5121.0,4863.0,0.0,0.0,0.0,0.0,0.0,0.0,0
198063d93970f3b4,1551759601747,1382,-5121.0,-5121.0,4863.0,0.0,0.0,0.0,0.0,0.0,0.0,0
198063d93970f3b4,1551759601807,1383,-5121.0,-5121.0,4863.0,0.0,0.0,0.0,0.0,0.0,0.0,0
198063d93970f3b4,1551759601867,1384,-5121.0,-4865.0,4863.0,0.0,0.0,0.0,0.0,0.0,0.0,0
198063d93970f3b4,1551759601927,1385,-5121.0,-5121.0,4863.0,0.0,0.0,0.0,0.0,0.0,0.0,0
198063d93970f3b4,1551759602017,1386,-5121.0,-4865.0,4863.0,0.0,0.0,0.0,0.0,0.0,0.0,0
198063d93970f3b4,1551759602077,1387,-5121.0,-4865.0,4863.0,0.0,0.0,0.0,0.0,0.0,0.0,0
198063d93970f3b4,1551759602137,1388,-5121.0,-5121.0,4863.0,0.0,0.0,0.0,0.0,0.0,0.0,0
198063d93970f3b4,1551759602197,1389,-5121.0,-5121.0,4863.0,0.0,0.0,0.0,0.0,0.0,0.0,0
198063d93970f3b4,1551759602257,1390,-5121.0,-4865.0,4863.0,0.0,0.0,0.0,0.0,0.0,0.0,0
198063d93970f3b4,1551759602347,1391,-5121.0,-4865.0,4863.0,0.0,0.0,0.0,0.0,0.0,0.0,0
198063d93970f3b4,1551759602407,1392,-5121.0,-4865.0,4863.0,0.0,0.0,0.0,0.0,0.0,0.0,0
198063d93970f3b4,1551759602467,1393,-5121.0,-4865.0,4863.0,0.0,0.0,0.0,0.0,0.0,0.0,0
198063d93970f3b4,1551759602527,1394,-5121.0,-5121.0,4863.0,0.0,0.0,0.0,0.0,0.0,0.0,0
198063d93970f3b4,1551759602587,1395,-5121.0,-4865.0,4863.0,0.0,0.0,0.0,0.0,0.0,0.0,0
198063d93970f3b4,1551759602677,1396,-5121.0,-5121.0,4863.0,0.0,0.0,0.0,0.0,0.0,0.0,0
198063d93970f3b4,1551759602737,1397,-5121.0,-4865.0,4863.0,0.0,0.0,0.0,0.0,0.0,0.0,0
198063d93970f3b4,1551759602797,1398,-5121.0,-4865.0,4863.0,0.0,0.0,0.0,0.0,0.0,0.0,0
198063d93970f3b4,1551759602857,1399,-5121.0,-4865.0,4863.0,0.0,0.0,0.0,0.0,0.0,0.0,0
198063d93970f3b4,1551759602917,1400,-5121.0,-4865.0,4863.0,0.0,0.0,0.0,0.0,0.0,0.0,0
198063d93970f3b4,1551759603007,1401,-5121.0,-4865.0,4863.0,0.0,0.0,0.0,0.0,0.0,0.0,0
198063d93970f3b4,1551759603067,1402,-5121.0,-5121.0,4863.0,0.0,0.0,0.0,0.0,0.0,0.0,0
198063d93970f3b4,1551759603127,1403,-5121.0,-4865.0,4863.0,0.0,0.0,0.0,0.0,0.0,0.0,0
198063d93970f3b4,1551759603187,1404,-5121.0,-4865.0,4863.0,0.0,0.0,0.0,0.0,0.0,0.0,0
